accX,accY,accZ,id,timestamp
-1149,-759,3765,1,1748698241029
-1089,-742,3781,2,1748698241069
-1097,-772,3815,3,1748698241111
-1107,-805,3785,4,1748698241150
-1081,-802,3774,5,1748698241189
-1106,-739,3782,6,1748698241229
-1172,-811,3788,7,1748698241272
-1253,-834,3788,8,1748698241309
-1204,-869,3778,9,1748698241350
-1197,-804,3755,10,1748698241390
-1203,-789,3768,11,1748698241432
-1168,-810,3775,12,1748698241470
-1203,-800,3768,13,1748698241510
-1185,-795,3777,14,1748698241550
-1290,-814,3770,15,1748698241593
-1214,-787,3789,16,1748698241631
-1187,-762,3811,17,1748698241670
-1200,-769,3798,18,1748698241710
-1195,-781,3771,19,1748698241753
-1170,-743,3789,20,1748698241791
-1200,-737,3783,21,1748698241831
-1205,-735,3805,22,1748698241871
-1194,-743,3801,23,1748698241913
-1198,-726,3822,24,1748698241951
-1167,-698,3794,25,1748698241991
-1175,-816,3755,26,1748698242031
-1084,-714,3806,27,1748698242073
-1138,-676,3800,28,1748698242112
-1263,-733,3765,29,1748698242152
-1177,-674,3809,30,1748698242192
-1237,-666,3825,31,1748698242234
-1134,-592,3875,32,1748698242272
-1322,-713,3984,33,1748698242312
-1056,-822,3704,34,1748698242353
-1015,-812,3797,35,1748698242394
-1088,-843,3724,36,1748698242432
-1106,-715,3869,37,1748698242473
-1145,-763,3820,38,1748698242513
-1111,-787,3834,39,1748698242556
-1096,-765,3839,40,1748698242593
-1048,-748,3809,41,1748698242633
-1008,-803,3789,42,1748698242673
-1019,-802,3798,43,1748698242715
-1082,-871,3829,44,1748698242754
-1137,-689,3871,45,1748698242793
-1132,-647,3917,46,1748698242833
-1251,-484,4426,47,1748698242876
-1457,-204,4520,48,1748698242914
-1140,-1071,3610,49,1748698242954
-1227,-1558,3261,50,1748698242994
-630,-1646,3319,51,1748698243035
-588,-1347,3521,52,1748698243074
-597,-1657,3261,53,1748698243114
-423,-1633,3280,54,1748698243154
-541,-2022,3171,55,1748698243197
-478,-2107,3247,56,1748698243234
-511,-1854,3360,57,1748698243274
-665,-2036,3255,58,1748698243314
-876,-1800,3470,59,1748698243356
-1210,-1551,4529,60,1748698243394
-1547,-1715,4303,61,1748698243435
-1476,-892,4590,62,1748698243475
-2182,-2108,4892,63,1748698243517
-1668,-1661,4315,64,1748698243555
-1054,-745,3998,65,1748698243595
-875,-1916,3432,66,1748698243635
-15,-2221,2922,67,1748698243677
-488,-2591,3343,68,1748698243715
362,-1652,2893,69,1748698243755
831,-1404,2511,70,1748698243795
988,-2060,2387,71,1748698243838
1176,-2718,1778,72,1748698243875
1389,-2907,1823,73,1748698243916
880,-2922,2166,74,1748698243956
831,-3180,1865,75,1748698243997
675,-3379,2136,76,1748698244036
683,-3604,1951,77,1748698244076
775,-3667,1605,78,1748698244116
482,-3917,1744,79,1748698244159
563,-3974,1594,80,1748698244196
694,-3801,1394,81,1748698244236
683,-3883,1200,82,1748698244276
787,-3936,953,83,1748698244318
678,-3884,1037,84,1748698244357
735,-3928,945,85,1748698244396
744,-3818,827,86,1748698244436
718,-3692,1049,87,1748698244479
756,-3700,980,88,1748698244517
739,-3830,838,89,1748698244557
716,-3809,915,90,1748698244597
653,-3897,758,91,1748698244639
709,-4187,660,92,1748698244677
686,-3883,709,93,1748698244717
675,-3925,682,94,1748698244758
621,-4385,570,95,1748698244797
819,-4221,307,96,1748698244837
741,-4012,227,97,1748698244878
705,-3954,512,98,1748698244918
893,-3956,88,99,1748698244958
995,-3923,-539,100,1748698244998
1045,-3797,-670,101,1748698245038
903,-3629,-817,102,1748698245078
948,-3736,-1361,103,1748698245118
1052,-3713,-1182,104,1748698245158
1041,-3682,-951,105,1748698245198
976,-3615,-1064,106,1748698245238
986,-3768,-1185,107,1748698245278
924,-4004,-1161,108,1748698245318
965,-3830,-1159,109,1748698245359
992,-3632,-1139,110,1748698245399
958,-3791,-1040,111,1748698245439
962,-3845,-1138,112,1748698245479
920,-3673,-1098,113,1748698245519
871,-3912,-953,114,1748698245560
984,-3896,-1179,115,1748698245599
1089,-3578,-1283,116,1748698245639
1139,-3747,-1345,117,1748698245679
1033,-3973,-1390,118,1748698245720
1044,-3807,-1287,119,1748698245760
916,-3692,-1272,120,1748698245800
949,-4035,-1410,121,1748698245840
824,-3985,-1145,122,1748698245880
987,-3646,-929,123,1748698245920
967,-3916,-935,124,1748698245960
983,-3859,-765,125,1748698246000
904,-3361,-486,126,1748698246041
1029,-3899,-762,127,1748698246080
1005,-3773,-708,128,1748698246120
1059,-3795,-866,129,1748698246161
983,-4035,-543,130,1748698246201
1174,-3924,-818,131,1748698246241
1103,-4141,-841,132,1748698246281
943,-3647,-551,133,1748698246321
1013,-3704,-340,134,1748698246362
848,-4021,-200,135,1748698246401
1088,-3988,-517,136,1748698246441
917,-3700,-480,137,1748698246481
1136,-3910,-426,138,1748698246522
1133,-3830,-436,139,1748698246562
1028,-3829,-471,140,1748698246602
1219,-3917,-592,141,1748698246642
1096,-3765,-521,142,1748698246683
1066,-3861,-626,143,1748698246722
1129,-3854,-702,144,1748698246762
964,-3848,-507,145,1748698246802
1010,-3614,-645,146,1748698246843
1048,-3655,-656,147,1748698246883
1183,-4070,-995,148,1748698246923
1050,-3714,-1063,149,1748698246963
909,-3539,-660,150,1748698247004
1127,-3296,-946,151,1748698247043
1046,-3507,-1520,152,1748698247083
1060,-4430,-1681,153,1748698247123
1005,-3747,-1278,154,1748698247164
1077,-3815,-1400,155,1748698247203
1168,-3646,-1431,156,1748698247243
940,-3522,-1402,157,1748698247283
1139,-3575,-1623,158,1748698247324
1250,-3855,-1570,159,1748698247364
1034,-3814,-1317,160,1748698247404
1247,-3684,-1382,161,1748698247444
1281,-3778,-1176,162,1748698247484
1254,-3807,-1094,163,1748698247524
1220,-3741,-922,164,1748698247564
1193,-3779,-828,165,1748698247604
1230,-3694,-642,166,1748698247645
1194,-4108,-1119,167,1748698247684
1097,-3521,-462,168,1748698247724
1165,-4394,-483,169,1748698247765
816,-3934,982,170,1748698247805
1016,-4200,604,171,1748698247845
924,-3985,762,172,1748698247885
1119,-3616,1468,173,1748698247925
1048,-2994,1388,174,1748698247966
945,-2952,2324,175,1748698248005
1085,-3192,2514,176,1748698248045
999,-3224,2540,177,1748698248085
947,-2078,3237,178,1748698248126
1027,-2577,2842,179,1748698248165
954,-2445,3064,180,1748698248205
994,-2153,3152,181,1748698248245
888,-2431,3053,182,1748698248286
1049,-2304,3164,183,1748698248325
968,-2615,3074,184,1748698248366
1093,-2556,2958,185,1748698248406
1055,-2260,3117,186,1748698248446
1056,-2157,3173,187,1748698248486
1043,-2408,3178,188,1748698248526
1099,-2158,3230,189,1748698248566
1084,-2358,3194,190,1748698248607
1021,-2258,3178,191,1748698248646
1061,-2213,3112,192,1748698248686
1082,-1876,3340,193,1748698248726
1062,-2300,3236,194,1748698248767
1247,-2319,3552,195,1748698248807
1284,-2110,3438,196,1748698248847
1031,-2037,3200,197,1748698248887
972,-2087,3224,198,1748698248927
1018,-1924,3319,199,1748698248967
1029,-2093,3195,200,1748698249007
887,-1253,3762,201,1748698253054
886,-1346,3701,202,1748698253095
922,-1372,3727,203,1748698253135
895,-1273,3721,204,1748698253175
887,-1329,3734,205,1748698253215
886,-1355,3751,206,1748698253255
874,-1319,3749,207,1748698253295
916,-1290,3742,208,1748698253335
906,-1333,3725,209,1748698253375
870,-1315,3738,210,1748698253416
860,-1300,3749,211,1748698253455
901,-1347,3719,212,1748698253495
881,-1324,3737,213,1748698253536
910,-1329,3732,214,1748698253577
897,-1305,3738,215,1748698253616
881,-1315,3725,216,1748698253656
894,-1332,3755,217,1748698253696
886,-1324,3729,218,1748698253737
887,-1332,3718,219,1748698253777
885,-1309,3737,220,1748698253816
919,-1329,3724,221,1748698253856
901,-1318,3734,222,1748698253897
888,-1283,3759,223,1748698253937
891,-1301,3747,224,1748698253977
881,-1347,3725,225,1748698254017
900,-1305,3751,226,1748698254058
889,-1330,3733,227,1748698254097
887,-1331,3710,228,1748698254137
877,-1309,3733,229,1748698254178
922,-1331,3746,230,1748698254218
913,-1321,3727,231,1748698254258
898,-1280,3745,232,1748698254298
901,-1281,3757,233,1748698254338
899,-1314,3736,234,1748698254379
883,-1302,3731,235,1748698254418
917,-1243,3769,236,1748698254458
892,-1310,3761,237,1748698254499
886,-1329,3754,238,1748698254539
873,-1278,3775,239,1748698254579
875,-1310,3741,240,1748698254619
874,-1313,3741,241,1748698254659
896,-1304,3758,242,1748698254700
886,-1313,3762,243,1748698254739
873,-1310,3756,244,1748698254780
890,-1296,3758,245,1748698254819
893,-1313,3757,246,1748698254860
897,-1297,3742,247,1748698254900
886,-1311,3771,248,1748698254940
893,-1295,3767,249,1748698254980
871,-1278,3774,250,1748698255020
913,-1342,3746,251,1748698255060
878,-1268,3789,252,1748698255100
895,-1247,3791,253,1748698255140
906,-1299,3770,254,1748698255182
873,-1310,3780,255,1748698255221
918,-1273,3762,256,1748698255261
859,-1261,3757,257,1748698255301
864,-1320,3737,258,1748698255342
898,-1301,3775,259,1748698255381
885,-1251,3755,260,1748698255421
869,-1301,3772,261,1748698255461
890,-1299,3773,262,1748698255502
920,-1308,3746,263,1748698255541
900,-1281,3774,264,1748698255582
878,-1302,3774,265,1748698255621
930,-1299,3776,266,1748698255662
872,-1285,3780,267,1748698255702
901,-1294,3777,268,1748698255742
893,-1310,3759,269,1748698255782
875,-1318,3765,270,1748698255822
875,-1276,3768,271,1748698255862
897,-1308,3778,272,1748698255902
888,-1276,3776,273,1748698255942
897,-1336,3758,274,1748698255983
909,-1299,3776,275,1748698256022
901,-1305,3788,276,1748698256062
882,-1294,3786,277,1748698256102
932,-1297,3763,278,1748698256143
889,-1292,3778,279,1748698256183
879,-1293,3773,280,1748698256223
916,-1319,3763,281,1748698256263
870,-1286,3780,282,1748698256304
877,-1280,3763,283,1748698256343
894,-1313,3782,284,1748698256383
891,-1303,3744,285,1748698256423
876,-1323,3778,286,1748698256464
917,-1300,3765,287,1748698256503
893,-1292,3743,288,1748698256543
854,-1290,3762,289,1748698256584
905,-1319,3757,290,1748698256624
892,-1320,3770,291,1748698256664
889,-1296,3762,292,1748698256704
873,-1281,3768,293,1748698256744
901,-1324,3773,294,1748698256785
875,-1252,3776,295,1748698256824
904,-1309,3785,296,1748698256864
879,-1240,3802,297,1748698256904
892,-1278,3745,298,1748698256945
851,-1298,3772,299,1748698256985
872,-1283,3777,300,1748698257025
897,-1292,3748,301,1748698257064
870,-1287,3748,302,1748698257105
872,-1290,3781,303,1748698257145
898,-1311,3768,304,1748698257185
896,-1313,3774,305,1748698257225
859,-1306,3781,306,1748698257266
896,-1283,3773,307,1748698257305
888,-1339,3751,308,1748698257345
889,-1282,3785,309,1748698257386
867,-1299,3754,310,1748698257426
865,-1328,3750,311,1748698257465
884,-1243,3793,312,1748698257506
897,-1269,3774,313,1748698257546
849,-1377,3722,314,1748698257587
876,-1328,3703,315,1748698257626
880,-1413,3748,316,1748698257666
907,-1193,3874,317,1748698257706
932,-1370,3715,318,1748698257747
886,-1330,3757,319,1748698257787
818,-1218,3764,320,1748698257826
816,-1296,3782,321,1748698257867
865,-1358,3747,322,1748698257907
907,-1330,3724,323,1748698257947
932,-1355,3791,324,1748698257987
944,-1363,3756,325,1748698258027
892,-1332,3735,326,1748698258068
909,-1413,3778,327,1748698258107
892,-1372,3738,328,1748698258147
925,-1389,3739,329,1748698258188
888,-1356,3728,330,1748698258228
933,-1355,3739,331,1748698258268
909,-1433,3743,332,1748698258308
914,-1452,3726,333,1748698258348
919,-1392,3853,334,1748698258389
984,-1434,3731,335,1748698258428
942,-1521,3858,336,1748698258468
840,-1207,3993,337,1748698258508
823,-1763,4443,338,1748698258549
406,-2244,4187,339,1748698258589
958,-1998,3193,340,1748698258628
1073,-2437,3494,341,1748698258669
1255,-2401,3168,342,1748698258710
1573,-2001,2743,343,1748698258749
1501,-2240,2727,344,1748698258789
1702,-1933,2454,345,1748698258829
1693,-2187,2377,346,1748698258870
1577,-2855,2021,347,1748698258909
1695,-3647,998,348,1748698258950
1721,-4406,243,349,1748698258990
1771,-4422,391,350,1748698259030
1727,-3677,424,351,1748698259070
1701,-3777,549,352,1748698259110
1835,-2847,1936,353,1748698259150
2176,-2663,1433,354,1748698259191
2164,-2946,967,355,1748698259230
2200,-3458,795,356,1748698259270
2160,-3520,674,357,1748698259311
2201,-3444,736,358,1748698259351
2272,-3198,749,359,1748698259391
2114,-3360,894,360,1748698259431
2187,-2792,1165,361,1748698259471
2193,-2999,1287,362,1748698259512
2245,-3147,921,363,1748698259551
2117,-3046,953,364,1748698259591
2143,-3078,860,365,1748698259631
2098,-3658,582,366,1748698259672
1968,-3714,499,367,1748698259711
2037,-4840,-215,368,1748698259751
2183,-3189,822,369,1748698259792
2067,-1877,2278,370,1748698259832
2237,-3021,2119,371,1748698259872
1905,-1973,2569,372,1748698259912
2297,-2412,3093,373,1748698259952
2141,-316,4037,374,1748698259993
1799,474,4290,375,1748698260032
1754,-281,3992,376,1748698260072
1634,-413,3446,377,1748698260112
1474,-119,3773,378,1748698260152
1391,-211,3849,379,1748698260192
1494,-536,3713,380,1748698260232
1381,-419,3448,381,1748698260272
1400,-733,3063,382,1748698260312
1300,-707,3501,383,1748698260353
1390,-659,3407,384,1748698260393
1335,-882,3612,385,1748698260433
1337,-457,4200,386,1748698260473
1469,-748,3916,387,1748698260513
1346,-1039,4142,388,1748698260553
1415,-1196,3945,389,1748698260593
1634,-55,3927,390,1748698260635
1389,-877,3720,391,1748698260673
1317,-927,4108,392,1748698260713
1100,-1942,3188,393,1748698260753
1244,-1727,4120,394,1748698260796
1293,-852,3866,395,1748698260833
1220,-2043,2380,396,1748698260874
1382,-3083,2412,397,1748698260914
1047,-1006,3945,398,1748698260955
1133,-1341,3727,399,1748698260994
1032,-1699,4863,400,1748698261034
824,-1372,3911,401,1748698261074
925,-995,3407,402,1748698261117
687,-1428,3407,403,1748698261154
982,-964,3795,404,1748698261195
1032,-1182,3930,405,1748698261235
1207,-1360,3572,406,1748698261276
1140,-2042,3792,407,1748698261315
1064,-1626,3906,408,1748698261355
1240,-2349,3116,409,1748698261395
1355,-1730,3661,410,1748698261438
1566,-1102,4000,411,1748698261475
1798,-727,3866,412,1748698261515
1762,-985,3246,413,1748698261555
1933,-1061,2007,414,1748698261597
2014,-2334,1015,415,1748698261635
781,-3575,2193,416,1748698261676
946,-3204,1248,417,1748698261716
983,-5012,121,418,1748698261758
652,-4068,1203,419,1748698261796
582,-3781,1092,420,1748698261836
173,-5122,1955,421,1748698261876
581,-3115,631,422,1748698261918
997,-4460,-274,423,1748698261956
1421,-4438,-364,424,1748698261997
1263,-3789,146,425,1748698262037
1335,-3859,102,426,1748698262079
1346,-3856,237,427,1748698262117
1001,-3662,410,428,1748698262157
1380,-3949,180,429,1748698262197
1155,-3923,327,430,1748698262239
1279,-3996,321,431,1748698262277
1086,-3649,1041,432,1748698262318
979,-3514,949,433,1748698262357
1102,-3994,569,434,1748698262401
1283,-3859,390,435,1748698262438
1263,-4233,-157,436,1748698262478
1154,-3875,425,437,1748698262518
1073,-3900,530,438,1748698262560
1102,-3726,546,439,1748698262598
1147,-4008,231,440,1748698262638
1260,-4047,22,441,1748698262679
1189,-3755,459,442,1748698262721
1215,-4077,-19,443,1748698262759
1231,-4057,-59,444,1748698262799
1206,-3832,293,445,1748698262839
1223,-3923,458,446,1748698262881
825,-3427,1434,447,1748698262919
1028,-3884,509,448,1748698262959
1340,-4090,177,449,1748698262999
1066,-3775,401,450,1748698263042
1168,-3915,347,451,1748698263079
1125,-3824,402,452,1748698263119
1194,-3909,453,453,1748698263160
1123,-3801,465,454,1748698263202
1132,-3824,336,455,1748698263240
1204,-3941,273,456,1748698263280
1204,-3800,228,457,1748698263320
1145,-3994,121,458,1748698263363
1218,-3969,95,459,1748698263401
1165,-4059,-125,460,1748698263440
1046,-3958,78,461,1748698263481
1141,-3833,267,462,1748698263523
1119,-3887,416,463,1748698263561
1161,-3794,690,464,1748698263602
1241,-3714,991,465,1748698263641
1341,-3756,858,466,1748698263684
1263,-3811,721,467,1748698263721
1213,-3857,596,468,1748698263761
1065,-3937,536,469,1748698263802
1126,-3870,627,470,1748698263843
1091,-3860,716,471,1748698263882
1111,-3733,990,472,1748698263922
1154,-3743,1180,473,1748698263962
1117,-3949,952,474,1748698264005
1146,-4311,533,475,1748698264042
290,-5904,2025,476,1748698264082
111,-4555,2354,477,1748698264122
1007,-1606,3783,478,1748698264164
1136,-1612,4539,479,1748698264202
1517,-73,2518,480,1748698264242
1703,-1455,2348,481,1748698264282
1541,15,3494,482,1748698264325
1775,-767,3385,483,1748698264363
2065,-1289,2870,484,1748698264403
2001,-807,2823,485,1748698264443
2292,-817,2672,486,1748698264483
2071,-426,3289,487,1748698264523
1708,-1200,3743,488,1748698264563
2157,-1496,3336,489,1748698264603
1626,478,4439,490,1748698264643
1336,-334,4196,491,1748698264683
1114,-490,4316,492,1748698264723
1128,-352,4529,493,1748698264763
1173,139,3905,494,1748698264804
1658,-349,3257,495,1748698264843
1922,-35,3606,496,1748698264883
1269,25,3710,497,1748698264925
1394,-94,3489,498,1748698264964
1380,-215,3426,499,1748698265004
1294,-138,3698,500,1748698265044
1127,-262,3986,501,1748698265091
1254,-101,3677,502,1748698265129
1634,-798,3563,503,1748698265169
1333,-38,3735,504,1748698265209
1271,-28,3981,505,1748698265251
1174,34,4353,506,1748698265289
1259,28,4078,507,1748698265329
1084,-392,3955,508,1748698265369
1180,-163,3922,509,1748698265412
1293,-141,3894,510,1748698265450
1352,-126,3992,511,1748698265490
1483,-26,3764,512,1748698265530
1254,292,4065,513,1748698265572
1254,69,3853,514,1748698265610
1025,1,4140,515,1748698265650
1010,-108,3945,516,1748698265690
1104,-89,3740,517,1748698265733
1243,78,3703,518,1748698265770
1164,18,3657,519,1748698265811
1196,-65,3683,520,1748698265851
1231,146,3750,521,1748698265892
1065,312,4210,522,1748698265931
727,709,4200,523,1748698265971
882,696,4151,524,1748698266011
957,1070,4001,525,1748698266054
895,681,3923,526,1748698266091
1001,426,3788,527,1748698266131
893,804,3875,528,1748698266171
1127,403,3723,529,1748698266213
1128,554,3810,530,1748698266251
861,134,4074,531,1748698266292
577,-247,4773,532,1748698266332
644,-285,3949,533,1748698266374
1200,-872,3521,534,1748698266412
770,-1504,3513,535,1748698266452
1165,-602,3446,536,1748698266492
1044,-620,3823,537,1748698266534
1400,-335,3886,538,1748698266572
1252,107,4067,539,1748698266613
1643,958,3731,540,1748698266652
1395,865,4117,541,1748698266695
1350,-414,3994,542,1748698266733
1308,-770,3899,543,1748698266773
1583,-530,3792,544,1748698266813
1551,-865,4553,545,1748698266854
1477,-992,4013,546,1748698266893
1779,-1969,2900,547,1748698266933
1942,-1911,2471,548,1748698266973
2182,-2384,1903,549,1748698267016
2195,-1872,2156,550,1748698267053
1738,-1479,3013,551,1748698267094
1586,-1599,3139,552,1748698267134
1684,-1328,3152,553,1748698267175
1760,-1821,3168,554,1748698267214
1548,-1239,3888,555,1748698267254
1395,-1186,3441,556,1748698267294
1102,-1588,3315,557,1748698267337
804,-2734,3764,558,1748698267374
967,-1213,4322,559,1748698267415
1070,-747,3991,560,1748698267455
816,-1488,3974,561,1748698267496
885,-124,4109,562,1748698267535
1014,-345,3965,563,1748698267575
1275,-350,3806,564,1748698267615
1157,-292,3862,565,1748698267658
1101,91,3990,566,1748698267695
970,-45,4082,567,1748698267735
889,-59,4025,568,1748698267775
864,435,4102,569,1748698267817
722,737,4143,570,1748698267856
835,102,4488,571,1748698267896
708,578,4563,572,1748698267936
904,331,3126,573,1748698267978
706,-1092,3042,574,1748698268016
107,-1353,3710,575,1748698268056
909,-1818,3298,576,1748698268096
614,-2219,3238,577,1748698268137
415,-1813,2718,578,1748698268176
-228,-2811,1107,579,1748698268216
585,-4309,1612,580,1748698268256
892,-3719,2099,581,1748698268299
1433,-5163,1283,582,1748698268336
1040,-3398,832,583,1748698268376
1131,-3844,587,584,1748698268417
1304,-3801,-526,585,1748698268458
1253,-3601,-478,586,1748698268497
1106,-3976,-827,587,1748698268537
890,-5650,-406,588,1748698268577
520,-4059,-97,589,1748698268620
1117,-3866,13,590,1748698268657
630,-4227,729,591,1748698268697
788,-2899,1205,592,1748698268737
653,-3432,1049,593,1748698268779
995,-4492,653,594,1748698268818
891,-3987,795,595,1748698268857
1284,-3844,690,596,1748698268897
1387,-3902,888,597,1748698268938
828,-3424,1240,598,1748698268978
1242,-3239,980,599,1748698269018
1243,-3093,802,600,1748698269058
1488,-3827,570,601,1748698269098
1397,-4089,711,602,1748698269138
1670,-4194,664,603,1748698269178
1248,-3678,633,604,1748698269218
888,-3732,585,605,1748698269258
1339,-4226,575,606,1748698269298
1231,-3500,365,607,1748698269338
1525,-3928,-309,608,1748698269378
1555,-4172,181,609,1748698269419
1135,-3739,493,610,1748698269458
1322,-3571,3,611,1748698269498
1509,-4262,-255,612,1748698269539
1543,-3898,417,613,1748698269580
1100,-3492,696,614,1748698269619
1083,-3838,458,615,1748698269659
982,-4008,203,616,1748698269699
1157,-3940,-273,617,1748698269741
1135,-4011,-202,618,1748698269779
1032,-3955,-154,619,1748698269819
1079,-3952,30,620,1748698269859
966,-3949,12,621,1748698269901
910,-3985,49,622,1748698269939
850,-3891,238,623,1748698269979
721,-3825,247,624,1748698270020
942,-4043,105,625,1748698270062
798,-3945,249,626,1748698270100
685,-3885,117,627,1748698270140
683,-3979,32,628,1748698270180
689,-4272,-256,629,1748698270222
851,-4002,-94,630,1748698270260
472,-3953,321,631,1748698270300
569,-3998,140,632,1748698270340
558,-4074,-15,633,1748698270383
607,-4171,-163,634,1748698270421
461,-3886,16,635,1748698270460
455,-4131,-79,636,1748698270501
531,-4063,-101,637,1748698270542
466,-3973,34,638,1748698270581
496,-3931,22,639,1748698270621
432,-4109,-50,640,1748698270661
502,-4027,21,641,1748698270703
482,-4090,143,642,1748698270741
580,-4063,75,643,1748698270781
404,-4311,60,644,1748698270822
166,-4877,574,645,1748698270863
-206,-5229,855,646,1748698270901
765,-5092,444,647,1748698270942
192,-4758,1137,648,1748698270982
1041,-1914,1813,649,1748698271024
1805,-1919,2081,650,1748698271062
1760,-1998,1759,651,1748698271102
2199,-1737,2319,652,1748698271142
2053,-1536,2952,653,1748698271184
1459,-1506,3328,654,1748698271223
1939,-2435,2353,655,1748698271262
1726,-892,2592,656,1748698271303
986,-1302,3145,657,1748698271345
469,-1722,4527,658,1748698271383
559,-484,4221,659,1748698271423
925,-170,4572,660,1748698271463
-171,-749,5432,661,1748698271505
787,335,4443,662,1748698271543
326,-1181,4004,663,1748698271583
257,218,4160,664,1748698271624
829,110,3844,665,1748698271666
636,-871,4107,666,1748698271704
550,128,4547,667,1748698271744
761,-187,4472,668,1748698271784
1330,-1049,3347,669,1748698271826
1692,-1162,2954,670,1748698271866
1730,-751,2819,671,1748698271904
1456,-1035,3175,672,1748698271944
1618,-1282,3942,673,1748698271984
1660,-623,3955,674,1748698272028
1658,-736,3839,675,1748698272065
1412,-1222,4129,676,1748698272105
1551,-1361,3970,677,1748698272145
1862,-1109,3781,678,1748698272187
1950,-1223,3342,679,1748698272226
2131,-2430,2533,680,1748698272265
2025,-2689,2134,681,1748698272305
1708,-2839,1550,682,1748698272348
1971,-3130,1543,683,1748698272385
2029,-2857,1643,684,1748698272426
1962,-2032,1749,685,1748698272465
2040,-2670,2289,686,1748698272507
1840,-2798,2337,687,1748698272546
1901,-2510,2286,688,1748698272586
1939,-2459,2598,689,1748698272626
1843,-2629,2725,690,1748698272668
1940,-2537,2766,691,1748698272706
1758,-2875,2847,692,1748698272746
1996,-2762,2480,693,1748698272786
2008,-2703,2398,694,1748698272826
1986,-2664,2498,695,1748698272866
2056,-2650,2626,696,1748698272906
2113,-2483,2453,697,1748698272946
2045,-2646,2351,698,1748698272986
2029,-2284,2513,699,1748698273027
1728,-2235,2688,700,1748698273066
1594,-1852,3045,701,1748698273106
1665,-2186,3024,702,1748698273147
1782,-1741,3283,703,1748698273187
1787,-1670,3167,704,1748698273227
1759,-1450,3039,705,1748698273267
1762,-980,3779,706,1748698273307
1893,-851,3541,707,1748698273347
1879,-731,3407,708,1748698273389
1759,-636,3826,709,1748698273427
1541,-845,3599,710,1748698273467
1613,-354,3656,711,1748698273507
1472,-884,3517,712,1748698273550
1770,-478,3535,713,1748698273587
1627,-537,3627,714,1748698273628
1563,-801,3748,715,1748698273667
1804,-381,3549,716,1748698273709
1565,-459,3495,717,1748698273748
1521,-546,3562,718,1748698273788
1654,-54,3811,719,1748698273828
1384,-911,4065,720,1748698273871
1533,-611,4124,721,1748698273908
1393,-803,3847,722,1748698273948
1426,-268,3964,723,1748698273988
1300,-808,3597,724,1748698274030
1077,-862,4150,725,1748698274068
1450,-736,3773,726,1748698274109
1430,-544,3905,727,1748698274149
1442,-554,4038,728,1748698274191
1299,-938,3345,729,1748698274229
1127,-754,3835,730,1748698274269
1176,-889,4091,731,1748698274309
1551,-1141,4227,732,1748698274351
855,-748,4193,733,1748698274389
1153,-301,3575,734,1748698274430
1336,-567,3208,735,1748698274470
1213,-708,3861,736,1748698274512
1290,-898,3743,737,1748698274550
1251,-616,3463,738,1748698274590
1315,-940,3293,739,1748698274630
871,-1822,3618,740,1748698274672
1111,-1755,3596,741,1748698274710
1393,-1664,3367,742,1748698274750
1578,-1994,3674,743,1748698274790
1185,-2270,3441,744,1748698274834
1253,-1760,3376,745,1748698274871
1130,-1327,3414,746,1748698274911
1234,-1786,3087,747,1748698274951
945,-1988,3413,748,1748698274992
921,-1365,3725,749,1748698275031
870,-1292,3596,750,1748698275071
627,-1597,3535,751,1748698275111
434,-2038,4110,752,1748698275154
883,-2139,3559,753,1748698275192
1005,-1822,3479,754,1748698275232
978,-1725,3440,755,1748698275272
1038,-1774,3674,756,1748698275314
1078,-1432,3845,757,1748698275352
854,-1343,3745,758,1748698275392
777,-1547,3613,759,1748698275433
806,-1748,3511,760,1748698275475
861,-1858,3471,761,1748698275512
964,-1776,3553,762,1748698275553
1043,-1587,3684,763,1748698275593
797,-1166,3833,764,1748698275635
1049,-1353,3774,765,1748698275673
1268,-1529,3835,766,1748698275713
599,-1089,3843,767,1748698275753
967,-1205,3651,768,1748698275796
934,-1422,3818,769,1748698275834
1083,-1284,3725,770,1748698275874
1080,-1195,3677,771,1748698275914
873,-1223,3708,772,1748698275955
939,-1258,3723,773,1748698275994
1021,-1102,3847,774,1748698276034
1024,-1016,3883,775,1748698276074
1018,-934,3929,776,1748698276117
882,-1218,3738,777,1748698276154
1024,-926,3821,778,1748698276194
954,-1005,3848,779,1748698276235
936,-1002,3804,780,1748698276276
1055,-1062,3819,781,1748698276315
995,-1042,3877,782,1748698276355
993,-1074,3796,783,1748698276395
925,-1069,3797,784,1748698276438
1005,-1018,3898,785,1748698276475
954,-1048,3746,786,1748698276515
991,-969,3876,787,1748698276555
999,-1008,3844,788,1748698276597
950,-877,3826,789,1748698276636
936,-948,3875,790,1748698276675
935,-990,3739,791,1748698276716
1050,-1005,3901,792,1748698276758
1070,-853,3918,793,1748698276796
1040,-1010,3787,794,1748698276836
998,-1019,3759,795,1748698276876
994,-975,3729,796,1748698276918
936,-975,3972,797,1748698276956
1045,-938,3715,798,1748698276996
993,-1193,3750,799,1748698277037
966,-1215,3794,800,1748698277079
1008,-906,3983,801,1748698277116
968,-926,3925,802,1748698277156
932,-785,3923,803,1748698277196
999,-998,3830,804,1748698277239
1005,-1111,3768,805,1748698277277
944,-958,3877,806,1748698277317
954,-955,3893,807,1748698277357
951,-881,3898,808,1748698277399
1006,-958,3871,809,1748698277437
946,-876,3836,810,1748698277477
927,-910,3855,811,1748698277517
965,-1062,3854,812,1748698277559
944,-838,3865,813,1748698277597
951,-932,3819,814,1748698277638
975,-953,3854,815,1748698277677
994,-933,3846,816,1748698277720
915,-902,3872,817,1748698277757
977,-974,3841,818,1748698277798
957,-898,3860,819,1748698277838
946,-945,3821,820,1748698277880
955,-927,3867,821,1748698277918
949,-909,3841,822,1748698277958
1006,-998,3892,823,1748698277998
972,-941,3960,824,1748698278041
990,-1035,3956,825,1748698278078
994,-926,3825,826,1748698278118
917,-1042,3673,827,1748698278159
878,-1094,3719,828,1748698278200
1044,-1007,3925,829,1748698278239
955,-973,3841,830,1748698278279
932,-1098,3883,831,1748698278319
946,-1195,3733,832,1748698278361
876,-1240,3680,833,1748698278399
951,-1143,3777,834,1748698278439
1000,-1092,3824,835,1748698278479
925,-1021,3877,836,1748698278521
1009,-1167,3834,837,1748698278560
951,-1077,3794,838,1748698278600
930,-1147,3775,839,1748698278640
973,-1096,3815,840,1748698278682
954,-1137,3801,841,1748698278720
979,-1154,3841,842,1748698278760
909,-1089,3823,843,1748698278800
949,-1149,3795,844,1748698278842
958,-1112,3811,845,1748698278880
959,-1087,3817,846,1748698278920
951,-1111,3805,847,1748698278960
945,-1106,3816,848,1748698279003
999,-1163,3763,849,1748698279041
981,-1098,3781,850,1748698279081
1008,-1055,3820,851,1748698279121
935,-1112,3810,852,1748698279163
952,-1092,3797,853,1748698279201
944,-1089,3796,854,1748698279241
983,-1080,3828,855,1748698279281
966,-1064,3791,856,1748698279324
970,-1113,3828,857,1748698279361
965,-1055,3816,858,1748698279402
968,-1093,3812,859,1748698279442
967,-1134,3805,860,1748698279483
948,-1114,3799,861,1748698279522
940,-1109,3819,862,1748698279562
934,-1138,3809,863,1748698279602
982,-1080,3808,864,1748698279645
971,-1108,3777,865,1748698279682
958,-1131,3822,866,1748698279722
966,-1117,3777,867,1748698279763
984,-1127,3794,868,1748698279804
966,-1101,3821,869,1748698279843
939,-1103,3799,870,1748698279883
961,-1107,3809,871,1748698279923
952,-1076,3802,872,1748698279966
948,-1104,3812,873,1748698280003
1008,-1100,3791,874,1748698280044
976,-1144,3762,875,1748698280083
947,-1102,3803,876,1748698280125
965,-1123,3781,877,1748698280164
974,-1116,3809,878,1748698280204
961,-1025,3829,879,1748698280244
936,-1100,3813,880,1748698280287
1018,-1192,3837,881,1748698280324
1010,-960,3852,882,1748698280364
916,-1100,3778,883,1748698280404
1047,-1240,3829,884,1748698280447
1084,-1566,3665,885,1748698280485
915,-1275,3648,886,1748698280525
890,-1010,3952,887,1748698280565
1028,-1261,3801,888,1748698280608
902,-840,3926,889,1748698280646
1282,-1351,3721,890,1748698280685
1152,-988,4087,891,1748698280725
1256,-1807,3687,892,1748698280767
1417,-1072,3769,893,1748698280805
1034,-1152,3638,894,1748698280846
983,-885,3936,895,1748698280886
1129,-64,4448,896,1748698280928
545,-938,3940,897,1748698280966
1249,-667,3658,898,1748698281006
1088,-1753,3798,899,1748698281046
1194,-704,4044,900,1748698281088
1326,-1256,3707,901,1748698281126
1169,-1686,3489,902,1748698281166
1219,-1248,3682,903,1748698281206
1123,-876,3773,904,1748698281249
732,-1254,3548,905,1748698281286
765,-1325,3593,906,1748698281327
548,-952,3869,907,1748698281367
549,-1153,4320,908,1748698281408
273,-994,5734,909,1748698281447
1312,1979,6045,910,1748698281487
1994,-576,3389,911,1748698281527
1722,-2811,1851,912,1748698281570
2859,-2848,1954,913,1748698281607
2960,-1294,2681,914,1748698281647
2459,-594,2557,915,1748698281687
1496,-2048,2653,916,1748698281729
1060,-931,3130,917,1748698281767
106,-2288,3733,918,1748698281807
129,-690,4186,919,1748698281848
96,-690,4021,920,1748698281890
-89,-607,4452,921,1748698281928
-246,-276,4030,922,1748698281968
-510,-739,4392,923,1748698282008
-349,-720,3872,924,1748698282050
4,-418,3692,925,1748698282088
-176,-55,3758,926,1748698282128
-131,222,4325,927,1748698282168
-453,537,4567,928,1748698282211
100,288,3899,929,1748698282249
-45,-213,3620,930,1748698282288
-108,604,4102,931,1748698282328
-244,316,3966,932,1748698282370
-163,380,3971,933,1748698282409
95,782,3976,934,1748698282449
-660,507,3764,935,1748698282489
-156,840,4223,936,1748698282532
-643,41,4268,937,1748698282569
-277,261,4026,938,1748698282609
-306,684,4007,939,1748698282650
-232,370,4193,940,1748698282691
-199,223,4136,941,1748698282729
-96,382,3974,942,1748698282770
-40,181,4154,943,1748698282810
241,99,4474,944,1748698282853
323,328,4914,945,1748698282890
130,953,4468,946,1748698282930
564,-492,3246,947,1748698282970
655,-2487,3654,948,1748698283012
772,-1653,3657,949,1748698283050
702,-593,3761,950,1748698283090
332,672,3679,951,1748698283130
-154,888,3385,952,1748698283173
-181,1441,3587,953,1748698283210
-541,1907,3394,954,1748698283251
-680,2002,3104,955,1748698283291
-1335,2419,3541,956,1748698283332
-1086,2788,3516,957,1748698283371
-993,2914,3284,958,1748698283411
-1518,3194,3642,959,1748698283451
-1302,2442,3176,960,1748698283494
-1096,2526,2745,961,1748698283531
-913,2469,2710,962,1748698283571
-962,2940,3050,963,1748698283612
-931,2259,2739,964,1748698283654
-1023,2080,3165,965,1748698283692
-1094,2894,3738,966,1748698283732
-887,2848,3321,967,1748698283772
-415,2884,3004,968,1748698283815
-772,1810,2989,969,1748698283853
-802,1856,3602,970,1748698283892
-767,2352,3488,971,1748698283932
-791,2433,3262,972,1748698283974
-802,2663,3309,973,1748698284012
-680,2252,3000,974,1748698284053
-797,2680,3133,975,1748698284093
-665,2440,3180,976,1748698284135
-660,2445,3469,977,1748698284173
-368,2014,2802,978,1748698284213
-782,2753,3285,979,1748698284253
-453,2595,2991,980,1748698284295
-522,2597,3072,981,1748698284334
-448,2735,3345,982,1748698284374
-310,2303,3152,983,1748698284414
-611,2756,3644,984,1748698284457
-479,2756,3362,985,1748698284494
-282,1430,2799,986,1748698284534
-302,2251,3156,987,1748698284574
-295,3328,3149,988,1748698284616
-372,2640,3058,989,1748698284654
-311,2140,3254,990,1748698284694
-280,2599,3132,991,1748698284734
-301,3020,3261,992,1748698284777
-286,2567,3248,993,1748698284815
-342,2724,3299,994,1748698284855
-244,2430,3165,995,1748698284895
-424,2624,3166,996,1748698284937
-146,2694,3199,997,1748698284975
-218,2482,3092,998,1748698285015
-196,2550,3381,999,1748698285056
-258,2742,3153,1000,1748698285098
-109,2784,3310,1001,1748698285135
-250,1874,3102,1002,1748698285175
-314,2691,3248,1003,1748698285215
-240,2776,3303,1004,1748698285258
-311,1856,3410,1005,1748698285296
-349,2606,3728,1006,1748698285336
31,2387,3823,1007,1748698285376
117,2414,3473,1008,1748698285419
39,2197,3204,1009,1748698285456
-192,2022,3374,1010,1748698285496
-223,1937,3457,1011,1748698285536
-559,2549,3743,1012,1748698285578
-307,2151,3823,1013,1748698285616
-351,2041,3780,1014,1748698285657
-156,2508,4179,1015,1748698285697
40,2439,3991,1016,1748698285739
225,1641,3416,1017,1748698285777
164,2113,4080,1018,1748698285817
692,2091,3840,1019,1748698285857
1055,2131,3570,1020,1748698285899
1215,2001,3399,1021,1748698285937
1270,2357,3337,1022,1748698285977
1304,2226,2756,1023,1748698286017
1128,2308,3035,1024,1748698286060
1322,2609,3159,1025,1748698286098
1205,1727,3260,1026,1748698286138
2126,1638,2494,1027,1748698286178
1452,2278,2755,1028,1748698286219
1722,2578,3195,1029,1748698286258
1206,1406,2621,1030,1748698286298
1668,2631,2882,1031,1748698286338
1375,2376,3065,1032,1748698286381
1538,3026,3537,1033,1748698286418
1475,2010,3658,1034,1748698286459
1855,1637,3206,1035,1748698286499
1826,1323,3312,1036,1748698286540
1834,1580,2875,1037,1748698286579
1408,2141,3595,1038,1748698286619
1519,1554,2928,1039,1748698286659
1293,735,2767,1040,1748698286702
972,1519,3512,1041,1748698286739
1114,848,3326,1042,1748698286779
910,1560,2829,1043,1748698286819
1185,1761,2994,1044,1748698286862
370,1814,3709,1045,1748698286899
536,1444,3631,1046,1748698286940
539,1177,4496,1047,1748698286980
666,1761,4293,1048,1748698287022
153,1417,3733,1049,1748698287060
350,1260,4205,1050,1748698287100
388,1222,4339,1051,1748698287140
212,1581,4699,1052,1748698287182
14,1136,3959,1053,1748698287220
338,1880,3257,1054,1748698287261
1040,1702,2997,1055,1748698287300
639,863,3104,1056,1748698287343
-299,1012,3059,1057,1748698287381
-846,1776,2199,1058,1748698287421
1203,354,3228,1059,1748698287461
-994,937,3125,1060,1748698287502
2047,253,2573,1061,1748698287541
-533,-388,4271,1062,1748698287581
2085,184,3187,1063,1748698287621
2636,-826,4548,1064,1748698287664
2836,-1322,4265,1065,1748698287701
2616,-802,3819,1066,1748698287741
648,-2303,5021,1067,1748698287782
1017,-2534,3690,1068,1748698287823
218,-3085,4600,1069,1748698287862
-107,-2219,4455,1070,1748698287902
-171,-2002,4301,1071,1748698287942
-1359,-2118,3825,1072,1748698287985
-107,-1489,3698,1073,1748698288022
-215,-471,3694,1074,1748698288063
-545,-2132,3163,1075,1748698288102
-407,-1311,3885,1076,1748698288144
-333,-1250,4052,1077,1748698288183
-323,-1362,3448,1078,1748698288223
-144,-2360,3350,1079,1748698288263
-551,-896,4205,1080,1748698288306
-104,-1724,3921,1081,1748698288343
-475,-1477,3957,1082,1748698288383
-523,-1655,4137,1083,1748698288423
-602,-1407,3520,1084,1748698288465
-631,-1335,3658,1085,1748698288504
-845,-1241,3727,1086,1748698288544
-595,-917,3891,1087,1748698288584
-1080,-434,4637,1088,1748698288627
-1220,-1956,3887,1089,1748698288664
-1283,-1849,4291,1090,1748698288704
-411,-1960,4284,1091,1748698288744
-567,-1559,3611,1092,1748698288787
399,-1443,2860,1093,1748698288824
466,-750,2876,1094,1748698288865
1527,-740,2040,1095,1748698288905
1562,-1464,2847,1096,1748698288948
1184,-810,3046,1097,1748698288985
2527,-1761,2426,1098,1748698289025
1638,-1842,2986,1099,1748698289065
2065,-1863,3121,1100,1748698289107
1884,-1683,3438,1101,1748698289146
1592,-2697,3638,1102,1748698289186
1701,-2432,3889,1103,1748698289226
1657,-2536,3778,1104,1748698289269
1517,-1721,3870,1105,1748698289307
1080,-1457,3978,1106,1748698289347
826,-2349,3730,1107,1748698289387
778,-1853,3807,1108,1748698289428
428,-1644,3468,1109,1748698289467
600,-1784,3296,1110,1748698289507
269,-2034,3705,1111,1748698289547
491,-2172,3506,1112,1748698289590
680,-1672,3359,1113,1748698289627
550,-1715,3539,1114,1748698289668
636,-1819,3585,1115,1748698289707
718,-1788,3830,1116,1748698289749
528,-1373,3581,1117,1748698289788
507,-1427,3698,1118,1748698289828
818,-1152,3776,1119,1748698289868
1056,-1719,3522,1120,1748698289910
1659,-2360,3533,1121,1748698289948
1419,-1168,3452,1122,1748698289988
288,-805,3996,1123,1748698290028
901,-1093,3721,1124,1748698290070
474,207,4177,1125,1748698290108
1426,-14,4231,1126,1748698290148
1213,-1253,3594,1127,1748698290189
1103,-969,3830,1128,1748698290231
886,-379,3982,1129,1748698290269
909,-524,4002,1130,1748698290309
1092,-663,3912,1131,1748698290349
1140,-608,3904,1132,1748698290391
1006,-628,3877,1133,1748698290429
1076,-568,3879,1134,1748698290470
979,-652,3867,1135,1748698290509
1080,-732,3850,1136,1748698290552
1073,-689,3885,1137,1748698290590
1087,-649,3889,1138,1748698290630
1026,-683,3904,1139,1748698290670
1082,-688,3863,1140,1748698290712
1085,-647,3882,1141,1748698290750
1044,-674,3877,1142,1748698290790
1071,-719,3881,1143,1748698290830
1033,-693,3884,1144,1748698290873
1012,-683,3877,1145,1748698290910
1058,-709,3882,1146,1748698290951
1027,-686,3861,1147,1748698290991
1049,-716,3874,1148,1748698291032
1061,-683,3870,1149,1748698291071
1043,-691,3886,1150,1748698291111
1063,-743,3867,1151,1748698291151
1061,-692,3865,1152,1748698291194
1044,-709,3883,1153,1748698291231
1027,-720,3872,1154,1748698291272
1015,-655,3872,1155,1748698291311
1060,-627,3874,1156,1748698291353
1026,-711,3867,1157,1748698291392
1037,-708,3891,1158,1748698291432
1021,-693,3897,1159,1748698291472
1067,-731,3898,1160,1748698291514
1071,-720,3894,1161,1748698291552
1045,-698,3894,1162,1748698291592
1053,-708,3877,1163,1748698291632
1060,-744,3875,1164,1748698291674
1045,-724,3857,1165,1748698291712
1054,-729,3901,1166,1748698291753
1032,-747,3863,1167,1748698291793
1049,-709,3875,1168,1748698291835
1030,-725,3888,1169,1748698291873
1072,-767,3857,1170,1748698291913
1074,-718,3845,1171,1748698291953
1061,-736,3892,1172,1748698291995
1049,-728,3878,1173,1748698292034
1044,-714,3860,1174,1748698292074
1054,-733,3869,1175,1748698292114
1037,-742,3856,1176,1748698292156
1042,-741,3855,1177,1748698292194
1066,-771,3859,1178,1748698292234
1042,-738,3868,1179,1748698292275
1011,-741,3868,1180,1748698292316
1034,-712,3863,1181,1748698292354
1049,-740,3907,1182,1748698292395
1040,-724,3896,1183,1748698292435
1025,-754,3850,1184,1748698292478
1050,-748,3870,1185,1748698292515
1054,-721,3878,1186,1748698292555
1019,-701,3890,1187,1748698292595
1035,-715,3891,1188,1748698292637
1029,-767,3870,1189,1748698292676
1049,-705,3868,1190,1748698292715
1066,-701,3869,1191,1748698292756
1043,-722,3905,1192,1748698292798
1027,-728,3873,1193,1748698292836
1046,-696,3879,1194,1748698292876
1046,-645,3904,1195,1748698292916
1051,-672,3886,1196,1748698292958
1030,-709,3886,1197,1748698292996
1048,-698,3866,1198,1748698293036
1033,-722,3887,1199,1748698293077
1055,-676,3916,1200,1748698293119
1017,-723,3870,1201,1748698293157
1056,-679,3878,1202,1748698293197
1046,-705,3870,1203,1748698293237
1062,-689,3866,1204,1748698293279
1026,-687,3909,1205,1748698293317
1052,-714,3869,1206,1748698293357
1061,-677,3885,1207,1748698293397
1035,-692,3896,1208,1748698293440
1068,-674,3896,1209,1748698293478
1039,-717,3857,1210,1748698293517
1007,-638,3907,1211,1748698293558
1069,-700,3889,1212,1748698293599
1065,-701,3870,1213,1748698293638
1070,-682,3906,1214,1748698293678
1032,-708,3869,1215,1748698293718
1040,-686,3872,1216,1748698293761
1013,-658,3864,1217,1748698293798
1044,-716,3882,1218,1748698293838
1066,-673,3900,1219,1748698293879
1047,-722,3882,1220,1748698293920
1053,-705,3896,1221,1748698293959
1030,-706,3881,1222,1748698293998
1041,-687,3901,1223,1748698294039
1066,-696,3889,1224,1748698294082
1052,-704,3877,1225,1748698294119
1054,-652,3891,1226,1748698294159
1053,-685,3879,1227,1748698294199
1099,-688,3884,1228,1748698294241
1044,-670,3906,1229,1748698294279
1039,-685,3859,1230,1748698294319
1068,-668,3901,1231,1748698294359
1018,-712,3851,1232,1748698294402
1042,-675,3877,1233,1748698294440
1051,-689,3888,1234,1748698294480
1031,-694,3877,1235,1748698294520
1053,-680,3889,1236,1748698294562
1040,-707,3863,1237,1748698294600
1055,-711,3893,1238,1748698294640
1047,-678,3893,1239,1748698294681
1065,-697,3867,1240,1748698294723
1050,-707,3875,1241,1748698294760
1041,-701,3869,1242,1748698294800
1058,-702,3880,1243,1748698294841
1024,-692,3855,1244,1748698294883
1023,-739,3871,1245,1748698294921
1060,-724,3891,1246,1748698294961
1057,-709,3871,1247,1748698295001
1032,-715,3853,1248,1748698295044
1037,-710,3899,1249,1748698295081
1023,-737,3885,1250,1748698295121
1037,-680,3882,1251,1748698295161
1065,-734,3877,1252,1748698295203
1032,-706,3881,1253,1748698295242
1049,-724,3860,1254,1748698295282
1050,-706,3907,1255,1748698295322
1035,-691,3876,1256,1748698295364
1047,-745,3871,1257,1748698295402
1045,-705,3886,1258,1748698295442
1042,-721,3871,1259,1748698295482
1029,-720,3883,1260,1748698295524
1031,-682,3860,1261,1748698295562
1062,-731,3889,1262,1748698295603
1042,-709,3881,1263,1748698295643
1060,-684,3890,1264,1748698295686
1040,-725,3865,1265,1748698295723
1022,-710,3903,1266,1748698295763
1059,-693,3878,1267,1748698295803
1056,-710,3864,1268,1748698295845
1054,-722,3888,1269,1748698295884
1037,-694,3909,1270,1748698295923
1054,-673,3889,1271,1748698295963
1041,-738,3885,1272,1748698296006
1027,-684,3892,1273,1748698296044
1033,-729,3867,1274,1748698296084
1029,-698,3889,1275,1748698296124
1023,-682,3887,1276,1748698296166
1030,-696,3894,1277,1748698296204
1042,-697,3885,1278,1748698296244
1059,-677,3870,1279,1748698296285
1042,-702,3878,1280,1748698296327
1038,-704,3868,1281,1748698296365
1035,-673,3884,1282,1748698296405
1051,-707,3880,1283,1748698296445
1043,-669,3873,1284,1748698296487
1024,-692,3893,1285,1748698296525
1015,-716,3884,1286,1748698296565
1032,-722,3874,1287,1748698296606
1051,-697,3901,1288,1748698296649
1045,-723,3873,1289,1748698296686
1047,-721,3868,1290,1748698296726
1038,-687,3874,1291,1748698296766
1032,-729,3866,1292,1748698296808
1066,-678,3869,1293,1748698296846
1053,-716,3877,1294,1748698296887
1054,-700,3861,1295,1748698296927
1038,-719,3871,1296,1748698296969
1042,-674,3912,1297,1748698297007
1046,-720,3878,1298,1748698297047
1034,-688,3880,1299,1748698297087
1009,-719,3900,1300,1748698297129
1056,-713,3887,1301,1748698297167
1034,-722,3889,1302,1748698297207
1036,-690,3879,1303,1748698297247
1063,-700,3898,1304,1748698297290
1044,-696,3882,1305,1748698297327
1017,-704,3891,1306,1748698297367
1038,-715,3857,1307,1748698297407
1069,-680,3890,1308,1748698297449
1046,-722,3898,1309,1748698297488
1033,-687,3871,1310,1748698297528
1039,-691,3887,1311,1748698297568
1018,-696,3888,1312,1748698297610
1055,-734,3862,1313,1748698297648
1013,-691,3866,1314,1748698297688
1019,-720,3883,1315,1748698297728
1032,-712,3894,1316,1748698297770
1045,-737,3864,1317,1748698297808
1035,-738,3888,1318,1748698297848
1047,-700,3863,1319,1748698297889
1065,-710,3863,1320,1748698297931
1045,-757,3875,1321,1748698297969
1041,-716,3878,1322,1748698298009
1020,-746,3894,1323,1748698298049
1039,-710,3883,1324,1748698298091
1035,-748,3864,1325,1748698298129
1038,-725,3887,1326,1748698298169
1035,-714,3856,1327,1748698298209
1069,-701,3889,1328,1748698298252
1037,-720,3877,1329,1748698298290
1034,-710,3860,1330,1748698298330
1019,-722,3878,1331,1748698298370
1044,-730,3888,1332,1748698298411
1061,-738,3878,1333,1748698298450
1056,-732,3890,1334,1748698298490
1025,-728,3883,1335,1748698298530
1003,-705,3888,1336,1748698298573
1014,-694,3880,1337,1748698298610
1026,-722,3892,1338,1748698298650
1056,-706,3871,1339,1748698298691
1042,-709,3877,1340,1748698298732
1032,-687,3886,1341,1748698298771
1027,-714,3869,1342,1748698298811
1050,-726,3885,1343,1748698298851
1058,-701,3880,1344,1748698298894
1007,-702,3868,1345,1748698298931
1047,-692,3898,1346,1748698298971
1022,-720,3873,1347,1748698299011
1048,-710,3862,1348,1748698299053
1037,-695,3890,1349,1748698299092
1050,-730,3899,1350,1748698299132
1013,-685,3897,1351,1748698299172
1046,-676,3862,1352,1748698299214
1029,-710,3885,1353,1748698299252
1034,-712,3896,1354,1748698299292
1045,-701,3841,1355,1748698299332
1035,-723,3851,1356,1748698299374
1045,-670,3902,1357,1748698299412
1058,-704,3865,1358,1748698299452
1039,-703,3893,1359,1748698299493
1071,-730,3859,1360,1748698299535
1050,-699,3880,1361,1748698299573
1019,-711,3872,1362,1748698299613
1053,-730,3880,1363,1748698299653
1033,-712,3847,1364,1748698299695
1094,-743,3893,1365,1748698299733
1046,-673,3865,1366,1748698299773
1043,-749,3951,1367,1748698299813
1057,-738,3941,1368,1748698299856
992,-735,3852,1369,1748698299894
1028,-743,3878,1370,1748698299934
1048,-722,3885,1371,1748698299974
1021,-788,3880,1372,1748698300015
1008,-736,3935,1373,1748698300054
1043,-727,3863,1374,1748698300094
1010,-764,3867,1375,1748698300134
1040,-732,3885,1376,1748698300177
1059,-748,3941,1377,1748698300214
1044,-751,3898,1378,1748698300254
1050,-738,3807,1379,1748698300295
1046,-742,3864,1380,1748698300337
1032,-769,3887,1381,1748698300375
1017,-737,3897,1382,1748698300415
1027,-736,3851,1383,1748698300455
1017,-730,3860,1384,1748698300498
1045,-730,3840,1385,1748698300535
1025,-734,3830,1386,1748698300576
1018,-767,3836,1387,1748698300616
1012,-746,3730,1388,1748698300657
1033,-741,3884,1389,1748698300696
1030,-765,3893,1390,1748698300736
990,-720,3931,1391,1748698300776
1041,-726,3840,1392,1748698300819
1030,-688,3956,1393,1748698300856
1144,-535,4131,1394,1748698300897
1040,-1110,4389,1395,1748698300936
1442,-992,4442,1396,1748698300978
1420,-1043,3589,1397,1748698301017
2162,-1032,3314,1398,1748698301057
1648,-1382,2710,1399,1748698301097
1484,-1119,2308,1400,1748698301139
1005,-2237,2908,1401,1748698301176
918,-1698,3148,1402,1748698301216
1164,-2271,3499,1403,1748698301256
1416,-2720,3791,1404,1748698301298
1746,-2213,3091,1405,1748698301336
1362,-2188,3339,1406,1748698301376
1412,-3556,4122,1407,1748698301416
2039,-2830,3966,1408,1748698301459
1882,-2596,3631,1409,1748698301497
2201,-1760,3066,1410,1748698301537
2271,-960,2797,1411,1748698301577
2529,-651,2385,1412,1748698301618
2466,10,2256,1413,1748698301657
2536,-151,2080,1414,1748698301697
2771,-313,2021,1415,1748698301737
2927,-291,2095,1416,1748698301780
2951,-19,2258,1417,1748698301817
3086,-267,2096,1418,1748698301857
3202,194,2330,1419,1748698301898
3294,3,2379,1420,1748698301939
3315,108,2349,1421,1748698301978
3425,85,2300,1422,1748698302018
3414,189,2293,1423,1748698302058
3468,179,2207,1424,1748698302101
3398,95,2294,1425,1748698302138
3397,0,2225,1426,1748698302178
3240,-104,2323,1427,1748698302218
3387,196,2267,1428,1748698302260
3372,136,2209,1429,1748698302298
3471,-98,2109,1430,1748698302338
3422,246,2272,1431,1748698302379
3462,192,2195,1432,1748698302421
3546,127,2192,1433,1748698302459
3469,175,2164,1434,1748698302499
3535,325,2178,1435,1748698302539
3448,78,2167,1436,1748698302580
3496,213,2162,1437,1748698302619
3433,198,2202,1438,1748698302659
3541,114,2178,1439,1748698302699
3445,165,2165,1440,1748698302742
3490,158,2167,1441,1748698302779
3466,198,2241,1442,1748698302819
3465,183,2253,1443,1748698302860
3399,79,2239,1444,1748698302901
3431,164,2203,1445,1748698302940
3420,112,2223,1446,1748698302980
3426,114,2205,1447,1748698303020
3436,91,2195,1448,1748698303062
3488,147,2274,1449,1748698303100
3471,144,2235,1450,1748698303140
3502,115,2252,1451,1748698303180
3460,95,2250,1452,1748698303222
3438,88,2266,1453,1748698303260
3461,42,2206,1454,1748698303301
3457,102,2201,1455,1748698303341
3460,177,2200,1456,1748698303383
3453,65,2246,1457,1748698303421
3483,45,2217,1458,1748698303461
3464,86,2266,1459,1748698303501
3463,111,2206,1460,1748698303543
3459,35,2261,1461,1748698303581
3423,43,2260,1462,1748698303621
3486,71,2193,1463,1748698303661
3461,130,2191,1464,1748698303704
3495,99,2220,1465,1748698303742
3435,16,2257,1466,1748698303782
3465,41,2256,1467,1748698303822
3407,42,2272,1468,1748698303864
3424,51,2243,1469,1748698303902
3486,89,2180,1470,1748698303942
3454,97,2247,1471,1748698303982
3425,71,2176,1472,1748698304025
3445,25,2227,1473,1748698304063
3422,79,2241,1474,1748698304103
3403,86,2161,1475,1748698304143
3449,79,2242,1476,1748698304184
3374,43,2200,1477,1748698304223
3236,50,2313,1478,1748698304263
3296,114,2270,1479,1748698304303
3265,376,1996,1480,1748698304346
3189,-56,1691,1481,1748698304383
2917,658,2083,1482,1748698304423
2911,51,2370,1483,1748698304463
2788,-430,2247,1484,1748698304506
2702,-516,2390,1485,1748698304544
2346,-1155,2709,1486,1748698304584
2241,-1452,2748,1487,1748698304624
1856,-2674,3036,1488,1748698304667
1851,-2457,3463,1489,1748698304704
1696,-2721,3472,1490,1748698304744
1611,-2796,3388,1491,1748698304785
1594,-2404,3361,1492,1748698304827
1651,-2213,3391,1493,1748698304865
1488,-2342,3383,1494,1748698304905
1531,-2140,3188,1495,1748698304945
1405,-2059,3266,1496,1748698304988
1368,-2115,3170,1497,1748698305025
1445,-2377,3617,1498,1748698305065
1336,-2709,3221,1499,1748698305106
1360,-2521,2938,1500,1748698305148
1267,-2253,3155,1501,1748698305186
1231,-2146,3179,1502,1748698305226
1237,-2287,3196,1503,1748698305266
1199,-2130,3303,1504,1748698305309
1269,-2149,3318,1505,1748698305346
1192,-2380,3322,1506,1748698305386
1262,-2143,3331,1507,1748698305426
1292,-2368,3110,1508,1748698305468
1394,-2178,3430,1509,1748698305507
1444,-1855,3171,1510,1748698305546
1525,-1935,3361,1511,1748698305586
1526,-1526,3329,1512,1748698305629
1531,-1093,3333,1513,1748698305667
1558,-1002,3457,1514,1748698305707
1518,-874,3519,1515,1748698305747
1549,-839,3647,1516,1748698305789
1509,-822,3667,1517,1748698305827
1492,-986,3626,1518,1748698305867
1489,-867,3701,1519,1748698305908
1535,-997,3586,1520,1748698305950
1553,-930,3649,1521,1748698305988
1534,-829,3715,1522,1748698306028
1435,-952,3699,1523,1748698306068
1514,-1212,3628,1524,1748698306110
1427,-1294,3658,1525,1748698306148
1532,-1493,3645,1526,1748698306188
1485,-1482,3573,1527,1748698306228
1492,-1527,3560,1528,1748698306271
1445,-1465,3654,1529,1748698306309
1490,-1464,3515,1530,1748698306349
1418,-1682,3377,1531,1748698306388
1513,-1578,3507,1532,1748698306430
1728,-1142,3933,1533,1748698306469
2029,-1394,4282,1534,1748698306509
2177,-1202,4185,1535,1748698306549
2371,-941,4108,1536,1748698306592
2472,-1739,3941,1537,1748698306629
2386,-1412,4056,1538,1748698306669
2425,-1442,3654,1539,1748698306710
2767,-1268,3442,1540,1748698306751
3019,-883,3323,1541,1748698306789
3100,-673,2961,1542,1748698306830
3148,-726,2860,1543,1748698306869
3098,-390,2231,1544,1748698306913
2767,526,1705,1545,1748698306950
2076,-187,1821,1546,1748698306990
1262,-280,3336,1547,1748698307030
764,631,3995,1548,1748698307072
742,273,3641,1549,1748698307110
607,340,3825,1550,1748698307150
585,744,3770,1551,1748698307190
797,961,3510,1552,1748698307233
648,1524,3717,1553,1748698307270
360,1154,3407,1554,1748698307311
546,1616,3430,1555,1748698307351
82,1537,3422,1556,1748698307392
325,1343,3617,1557,1748698307431
423,1341,3503,1558,1748698307471
505,1162,3804,1559,1748698307511
532,1794,4036,1560,1748698307554
763,1899,4056,1561,1748698307591
788,1355,4106,1562,1748698307631
577,1658,3810,1563,1748698307671
610,1344,3667,1564,1748698307713
596,1415,3514,1565,1748698307753
429,1906,4005,1566,1748698307792
740,1657,3594,1567,1748698307832
726,1603,3755,1568,1748698307872
644,1564,3887,1569,1748698307915
578,1709,3667,1570,1748698307952
-424,2181,3672,1571,1748698307992
647,1473,3781,1572,1748698308032
313,1602,4107,1573,1748698308074
513,1757,4279,1574,1748698308113
374,1778,3951,1575,1748698308153
465,1736,3648,1576,1748698308193
-92,1636,3831,1577,1748698308236
-603,1443,3723,1578,1748698308273
-1158,751,2419,1579,1748698308314
119,99,3235,1580,1748698308353
-1017,84,3471,1581,1748698308395
100,-303,3538,1582,1748698308434
558,-381,3216,1583,1748698308474
702,-132,3366,1584,1748698308514
2071,-579,2774,1585,1748698308556
2618,-348,2744,1586,1748698308594
2503,-697,3060,1587,1748698308634
3033,-1435,2579,1588,1748698308674
3134,-1609,3428,1589,1748698308716
2570,-1972,3167,1590,1748698308755
4013,-2519,2252,1591,1748698308795
2340,-2061,3613,1592,1748698308835
3262,-2891,2944,1593,1748698308878
2267,-3383,3240,1594,1748698308915
1631,-2920,3656,1595,1748698308955
1792,-2543,3488,1596,1748698308995
1088,-2591,3507,1597,1748698309037
1605,-2505,3134,1598,1748698309076
1183,-2514,3125,1599,1748698309116
1037,-2750,2977,1600,1748698309156
1264,-2402,3014,1601,1748698309198
1063,-2020,3275,1602,1748698309236
1015,-1905,3931,1603,1748698309276
1263,-1361,3398,1604,1748698309316
1151,-1595,3720,1605,1748698309358
1031,-1149,3132,1606,1748698309396
806,-34,3322,1607,1748698309436
-145,-2382,4136,1608,1748698309476
660,-2626,2922,1609,1748698309519
906,-1755,3541,1610,1748698309557
-83,-2028,3644,1611,1748698309597
940,-2798,3407,1612,1748698309637
743,-1570,3935,1613,1748698309678
510,-424,4047,1614,1748698309717
828,-1612,3866,1615,1748698309757
887,-1271,3974,1616,1748698309797
479,-1719,3628,1617,1748698309840
511,-1583,3720,1618,1748698309877
496,-1343,2795,1619,1748698309918
1158,-1194,3186,1620,1748698309957
773,-814,3902,1621,1748698309999
984,-247,3905,1622,1748698310038
756,395,4283,1623,1748698310078
615,388,4162,1624,1748698310118
595,-372,4011,1625,1748698310160
622,-23,4025,1626,1748698310198
762,-475,3961,1627,1748698310238
778,-326,3958,1628,1748698310278
772,-185,3997,1629,1748698310320
775,-216,4026,1630,1748698310358
680,-187,4008,1631,1748698310398
650,-158,4034,1632,1748698310439
697,-174,3998,1633,1748698310481
690,-269,4006,1634,1748698310519
685,-245,3994,1635,1748698310559
668,-215,4021,1636,1748698310599
666,-237,4012,1637,1748698310641
667,-308,3994,1638,1748698310679
692,-230,4015,1639,1748698310719
710,-319,3974,1640,1748698310759
719,-307,4036,1641,1748698310802
649,-215,4068,1642,1748698310839
738,-352,4055,1643,1748698310879
707,-202,4526,1644,1748698310920
356,268,4655,1645,1748698310961
703,-1600,3520,1646,1748698311000
860,-2984,2992,1647,1748698311040
1063,-2172,3242,1648,1748698311080
913,-1696,3975,1649,1748698311123
1167,-1564,3548,1650,1748698311160
1091,-1883,3353,1651,1748698311200
1018,-1782,3338,1652,1748698311240
920,-1687,3435,1653,1748698311282
827,-1800,3217,1654,1748698311321
1035,-3161,2759,1655,1748698311361
915,-2866,2786,1656,1748698311401
1077,-2562,2415,1657,1748698311443
916,-3482,2956,1658,1748698311481
721,-3866,2814,1659,1748698311521
1414,-3007,2647,1660,1748698311561
1622,-3419,2161,1661,1748698311603
1578,-3470,1928,1662,1748698311642
1766,-3136,2099,1663,1748698311681
1629,-2910,2192,1664,1748698311722
1947,-2762,2188,1665,1748698311762
1891,-2238,2185,1666,1748698311802
2192,-1818,2236,1667,1748698311842
2303,-940,2498,1668,1748698311882
2092,-221,3225,1669,1748698311922
2192,-4,3212,1670,1748698311962
2336,-654,3491,1671,1748698312002
2407,-996,3506,1672,1748698312042
2740,-926,3339,1673,1748698312082
2562,-680,3291,1674,1748698312123
2843,-386,2913,1675,1748698312162
2787,154,3353,1676,1748698312203
2840,-425,2635,1677,1748698312243
2778,-197,2674,1678,1748698312283
2877,51,2860,1679,1748698312323
2845,-424,2709,1680,1748698312363
2898,49,2658,1681,1748698312403
2986,-108,2492,1682,1748698312443
2975,48,2722,1683,1748698312484
2980,235,2466,1684,1748698312524
3072,178,2516,1685,1748698312564
3086,590,2582,1686,1748698312604
3121,344,2637,1687,1748698312645
3064,162,2652,1688,1748698312684
3090,235,2628,1689,1748698312725
3115,242,2661,1690,1748698312764
3057,328,2757,1691,1748698312805
3097,33,2630,1692,1748698312845
3104,94,2676,1693,1748698312885
3138,242,2710,1694,1748698312925
3080,104,2679,1695,1748698312965
3123,78,2718,1696,1748698313005
3088,200,2680,1697,1748698313045
3171,91,2659,1698,1748698313085
3079,132,2631,1699,1748698313127
3144,303,2580,1700,1748698313165
3120,100,2654,1701,1748698313205
3145,69,2687,1702,1748698313245
3197,217,2681,1703,1748698313287
3155,101,2654,1704,1748698313326
3190,186,2590,1705,1748698313366
3197,247,2690,1706,1748698313406
3160,154,2603,1707,1748698313447
3200,103,2563,1708,1748698313486
3157,299,2577,1709,1748698313526
3229,211,2599,1710,1748698313566
3208,154,2526,1711,1748698313607
3221,246,2567,1712,1748698313646
3320,188,2524,1713,1748698313687
3244,267,2508,1714,1748698313727
3273,268,2447,1715,1748698313767
3324,135,2430,1716,1748698313807
3253,295,2483,1717,1748698313847
3240,165,2314,1718,1748698313887
3326,189,2467,1719,1748698313928
3213,275,2497,1720,1748698313967
3362,249,2342,1721,1748698314007
3379,258,2394,1722,1748698314048
3343,368,2444,1723,1748698314088
3339,281,2378,1724,1748698314128
3335,260,2363,1725,1748698314168
3340,321,2352,1726,1748698314208
3372,292,2333,1727,1748698314249
3332,239,2332,1728,1748698314288
3280,352,2355,1729,1748698314328
3328,301,2416,1730,1748698314368
3285,320,2422,1731,1748698314409
3366,297,2375,1732,1748698314448
3331,286,2382,1733,1748698314488
3377,331,2378,1734,1748698314529
3367,313,2333,1735,1748698314569
3368,264,2349,1736,1748698314609
3397,351,2295,1737,1748698314649
3385,224,2168,1738,1748698314689
3313,309,2328,1739,1748698314730
3401,283,2346,1740,1748698314769
3376,291,2311,1741,1748698314809
3436,237,2311,1742,1748698314849
3463,378,2356,1743,1748698314890
3364,198,2250,1744,1748698314930
3314,379,2250,1745,1748698314970
3293,349,2147,1746,1748698315010
3266,287,2162,1747,1748698315050
3248,190,2267,1748,1748698315090
3265,242,2231,1749,1748698315130
3285,170,2207,1750,1748698315170
3162,244,2343,1751,1748698315211
2793,229,2125,1752,1748698315250
2810,-395,2454,1753,1748698315291
2841,-480,2421,1754,1748698315331
2479,-403,2602,1755,1748698315371
2576,-867,2938,1756,1748698315411
2246,-1048,2777,1757,1748698315451
2098,-1373,3212,1758,1748698315491
1847,-1898,3180,1759,1748698315532
1763,-1328,3713,1760,1748698315571
2192,-1576,3391,1761,1748698315612
1707,-2042,3777,1762,1748698315651
1959,-1927,3657,1763,1748698315692
1617,-2295,3773,1764,1748698315732
1520,-2051,3610,1765,1748698315772
1616,-1948,3421,1766,1748698315812
1381,-2140,3412,1767,1748698315853
1464,-1822,3368,1768,1748698315892
1337,-2045,3236,1769,1748698315933
1267,-2097,3348,1770,1748698315973
1196,-1962,3363,1771,1748698316013
1142,-1963,3380,1772,1748698316053
1123,-1974,3434,1773,1748698316093
1113,-2018,3454,1774,1748698316133
1170,-2093,3255,1775,1748698316174
1092,-2295,3190,1776,1748698316213
1001,-2379,3252,1777,1748698316253
1050,-2272,3239,1778,1748698316293
1024,-2217,3168,1779,1748698316335
1047,-2287,3273,1780,1748698316374
1014,-2069,3115,1781,1748698316414
868,-2180,3286,1782,1748698316454
886,-2016,3260,1783,1748698316495
884,-2119,3067,1784,1748698316535
819,-2235,3320,1785,1748698316574
838,-2922,3744,1786,1748698316614
1077,-2460,3434,1787,1748698316655
969,-1866,3379,1788,1748698316695
908,-2524,3185,1789,1748698316735
802,-2279,3395,1790,1748698316775
805,-2055,3414,1791,1748698316816
894,-2445,3165,1792,1748698316855
788,-2556,3091,1793,1748698316895
839,-2579,2929,1794,1748698316936
828,-2776,2778,1795,1748698316976
823,-2867,2733,1796,1748698317016
879,-2840,2750,1797,1748698317056
896,-2811,2708,1798,1748698317096
902,-2783,2851,1799,1748698317137
860,-2681,2966,1800,1748698317176
820,-2706,2920,1801,1748698317216
872,-2782,2771,1802,1748698317256
874,-2877,2685,1803,1748698317297
922,-2955,2734,1804,1748698317337
971,-2894,2667,1805,1748698317377
924,-2937,2673,1806,1748698317417
922,-2973,2648,1807,1748698317457
913,-2955,2647,1808,1748698317497
881,-2962,2677,1809,1748698317537
915,-2912,2647,1810,1748698317577
911,-2910,2669,1811,1748698317618
871,-2952,2696,1812,1748698317657
899,-2879,2744,1813,1748698317697
909,-2896,2720,1814,1748698317738
865,-2973,2663,1815,1748698317778
941,-2969,2544,1816,1748698317818
835,-2920,2630,1817,1748698317858
872,-2941,2658,1818,1748698317898
922,-2901,2730,1819,1748698317939
877,-2976,2633,1820,1748698317978
859,-2963,2626,1821,1748698318018
862,-2958,2623,1822,1748698318058
849,-2894,2652,1823,1748698318099
906,-2986,2652,1824,1748698318139
958,-2931,2662,1825,1748698318179
958,-2976,2657,1826,1748698318219
923,-2934,2678,1827,1748698318259
911,-2879,2680,1828,1748698318299
903,-2898,2633,1829,1748698318339
880,-2876,2684,1830,1748698318379
828,-2882,2711,1831,1748698318420
798,-2827,2834,1832,1748698318459
797,-2767,2843,1833,1748698318499
902,-2746,2827,1834,1748698318540
874,-2879,2687,1835,1748698318580
966,-2897,2684,1836,1748698318620
962,-2905,2765,1837,1748698318660
914,-2743,2821,1838,1748698318700
869,-2836,2791,1839,1748698318741
875,-2882,2709,1840,1748698318780
849,-2833,2743,1841,1748698318820
890,-2806,2801,1842,1748698318860
900,-2831,2826,1843,1748698318901
923,-2779,2810,1844,1748698318941
923,-2793,2850,1845,1748698318981
911,-2838,2818,1846,1748698319021
879,-2735,2828,1847,1748698319061
880,-2783,2827,1848,1748698319101
881,-2821,2806,1849,1748698319141
905,-2781,2835,1850,1748698319181
912,-2778,2847,1851,1748698319222
890,-2783,2803,1852,1748698319261
905,-2792,2811,1853,1748698319301
878,-2803,2810,1854,1748698319342
892,-2785,2797,1855,1748698319382
928,-2809,2852,1856,1748698319422
892,-2809,2766,1857,1748698319462
868,-2782,2854,1858,1748698319502
924,-2762,2845,1859,1748698319543
941,-2755,2801,1860,1748698319582
879,-2815,2811,1861,1748698319622
906,-2760,2829,1862,1748698319663
902,-2774,2840,1863,1748698319703
881,-2780,2842,1864,1748698319743
925,-2788,2799,1865,1748698319783
930,-2772,2835,1866,1748698319823
913,-2733,2851,1867,1748698319864
898,-2806,2799,1868,1748698319903
874,-2779,2810,1869,1748698319944
896,-2745,2825,1870,1748698319983
912,-2791,2822,1871,1748698320024
903,-2809,2850,1872,1748698320064
901,-2755,2845,1873,1748698320104
893,-2766,2823,1874,1748698320144
887,-2818,2814,1875,1748698320185
901,-2804,2833,1876,1748698320224
850,-2774,2838,1877,1748698320264
882,-2784,2817,1878,1748698320304
882,-2763,2812,1879,1748698320345
906,-2790,2810,1880,1748698320384
909,-2753,2843,1881,1748698320425
910,-2769,2833,1882,1748698320465
894,-2783,2830,1883,1748698320505
891,-2744,2848,1884,1748698320545
930,-2770,2812,1885,1748698320585
890,-2770,2846,1886,1748698320625
915,-2773,2853,1887,1748698320666
808,-2699,2968,1888,1748698320705
866,-2703,2842,1889,1748698320746
940,-2912,2736,1890,1748698320786
965,-2852,2596,1891,1748698320826
926,-3017,2684,1892,1748698320866
1010,-2951,2638,1893,1748698320906
896,-2815,2767,1894,1748698320946
955,-2785,2957,1895,1748698320987
901,-2792,2724,1896,1748698321026
908,-3149,2694,1897,1748698321066
934,-2719,2716,1898,1748698321106
822,-2982,2905,1899,1748698321148
859,-2574,2921,1900,1748698321187
817,-2743,2986,1901,1748698321227
895,-2939,2796,1902,1748698321267
860,-2638,2767,1903,1748698321308
965,-2836,2931,1904,1748698321347
918,-2564,2812,1905,1748698321387
872,-2969,2775,1906,1748698321427
894,-2750,2772,1907,1748698321468
872,-2790,2789,1908,1748698321507
956,-2886,2750,1909,1748698321547
917,-2775,2772,1910,1748698321587
927,-2856,2721,1911,1748698321628
926,-2869,2760,1912,1748698321667
906,-2716,2837,1913,1748698321708
921,-2864,2901,1914,1748698321748
1006,-2729,2827,1915,1748698321788
924,-2808,2778,1916,1748698321828
931,-2810,2732,1917,1748698321868
931,-2843,2717,1918,1748698321908
945,-2788,2720,1919,1748698321949
949,-2844,2805,1920,1748698321988
962,-2844,2679,1921,1748698322028
943,-2866,2746,1922,1748698322068
946,-2853,2669,1923,1748698322109
965,-2919,2794,1924,1748698322149
991,-2802,2832,1925,1748698322189
994,-2815,2754,1926,1748698322229
953,-2925,2645,1927,1748698322269
974,-2879,2638,1928,1748698322309
971,-2879,2720,1929,1748698322350
1018,-2796,2824,1930,1748698322389
1038,-2790,2675,1931,1748698322430
969,-2910,2699,1932,1748698322470
968,-2830,2763,1933,1748698322510
984,-2847,2688,1934,1748698322550
929,-2864,2840,1935,1748698322590
1028,-2808,2707,1936,1748698322630
1018,-2927,2670,1937,1748698322670
1064,-2886,2807,1938,1748698322710
982,-2809,2711,1939,1748698322751
1008,-2840,2655,1940,1748698322790
1074,-2899,2650,1941,1748698322830
1001,-2804,2616,1942,1748698322870
1022,-2731,2736,1943,1748698322911
1086,-2517,2380,1944,1748698322951
630,-3009,2831,1945,1748698322991
822,-3031,3261,1946,1748698323031
1012,-2650,3041,1947,1748698323072
1190,-2803,2520,1948,1748698323111
1039,-2326,2962,1949,1748698323151
883,-2781,3034,1950,1748698323191
836,-2590,2945,1951,1748698323232
844,-2687,2874,1952,1748698323271
956,-2857,2784,1953,1748698323311
917,-2778,2880,1954,1748698323352
858,-2647,2943,1955,1748698323392
855,-2628,2976,1956,1748698323432
859,-2643,3004,1957,1748698323472
829,-2595,2990,1958,1748698323512
835,-2617,2996,1959,1748698323553
907,-2675,2931,1960,1748698323592
864,-2696,2911,1961,1748698323632
840,-2693,2942,1962,1748698323672
819,-2666,2955,1963,1748698323713
821,-2666,2978,1964,1748698323753
879,-2680,2908,1965,1748698323793
846,-2706,2937,1966,1748698323833
850,-2635,2946,1967,1748698323873
863,-2698,2921,1968,1748698323913
834,-2681,2939,1969,1748698323953
820,-2642,2928,1970,1748698323993
823,-2680,2976,1971,1748698324034
855,-2592,3068,1972,1748698324073
843,-2646,3007,1973,1748698324113
912,-2641,2922,1974,1748698324154
884,-2671,2950,1975,1748698324194
836,-2603,3066,1976,1748698324234
893,-2726,2892,1977,1748698324274
888,-2801,2804,1978,1748698324314
876,-2724,2835,1979,1748698324355
873,-2680,2916,1980,1748698324394
917,-2759,2845,1981,1748698324434
884,-2744,2912,1982,1748698324474
810,-2722,2952,1983,1748698324515
846,-2671,2939,1984,1748698324555
787,-2717,3147,1985,1748698324595
1061,-2524,3222,1986,1748698324635
950,-2421,2970,1987,1748698324675
1175,-4278,1503,1988,1748698324715
1179,-4553,909,1989,1748698324755
1183,-4462,1573,1990,1748698324795
1706,-4080,1767,1991,1748698324836
1618,-3481,1758,1992,1748698324875
1646,-3233,1696,1993,1748698324916
1698,-3079,1739,1994,1748698324956
1640,-2514,2049,1995,1748698324996
1607,-1689,2001,1996,1748698325036
1735,-2073,2597,1997,1748698325076
1301,-2341,3049,1998,1748698325116
1587,-2487,3068,1999,1748698325157
1539,-2071,2750,2000,1748698325196
1721,-2146,3110,2001,1748698325236
1750,-2103,3153,2002,1748698325276
1801,-1980,2928,2003,1748698325317
1822,-2154,3238,2004,1748698325357
1916,-1834,3022,2005,1748698325397
1640,-1758,3097,2006,1748698325437
1859,-2008,3079,2007,1748698325478
1720,-1564,2907,2008,1748698325517
1618,-2286,3092,2009,1748698325557
1668,-1987,4060,2010,1748698325597
1889,-2001,3275,2011,1748698325638
1786,-898,3507,2012,1748698325677
1673,-1673,3297,2013,1748698325717
1578,-1377,3389,2014,1748698325758
1628,-2356,2719,2015,1748698325798
1675,-1839,2246,2016,1748698325838
1492,-3269,594,2017,1748698325878
1573,-3867,368,2018,1748698325918
1297,-3709,368,2019,1748698325959
1342,-3787,938,2020,1748698325998
1750,-2982,1572,2021,1748698326038
2087,-2723,1489,2022,1748698326078
2322,-2281,1705,2023,1748698326119
2548,-1072,2547,2024,1748698326159
1480,-3217,2330,2025,1748698326198
939,-3828,2292,2026,1748698326238
1093,-3998,3280,2027,1748698326279
748,-4003,2714,2028,1748698326319
1289,-3849,1933,2029,1748698326359
1238,-3367,1842,2030,1748698326399
924,-4517,2252,2031,1748698326440
-861,-2820,2776,2032,1748698326479
-828,-371,6389,2033,1748698326519
236,-922,4962,2034,1748698326559
1135,-849,3264,2035,1748698326600
1558,1146,3608,2036,1748698326639
1803,-274,2859,2037,1748698326679
1475,57,3394,2038,1748698326719
1579,-345,3367,2039,1748698326760
1889,-494,3430,2040,1748698326800
1774,-362,4220,2041,1748698326840
1620,2276,3907,2042,1748698326880
1636,2377,2314,2043,1748698326920
1379,564,2503,2044,1748698326960
1073,2219,4298,2045,1748698327000
1009,651,3973,2046,1748698327040
1610,1192,3441,2047,1748698327081
1153,1470,3576,2048,1748698327120
1015,1736,3755,2049,1748698327161
809,954,4047,2050,1748698327200
1365,2526,4095,2051,1748698327241
531,1275,4582,2052,1748698327281
542,1306,4841,2053,1748698327321
1160,1110,4216,2054,1748698327361
1723,979,4032,2055,1748698327401
1845,650,3214,2056,1748698327441
2050,739,2671,2057,1748698327481
2310,-144,2457,2058,1748698327521
2371,-777,2390,2059,1748698327561
2231,-910,2303,2060,1748698327602
2386,-1542,2437,2061,1748698327641
1935,-1354,2589,2062,1748698327681
1887,-1457,2990,2063,1748698327722
1869,-1851,3014,2064,1748698327763
1826,-1656,2835,2065,1748698327802
1538,-2529,3355,2066,1748698327842
1718,-2459,2720,2067,1748698327882
1253,-2688,3349,2068,1748698327923
1489,-2717,3336,2069,1748698327963
1303,-2383,3042,2070,1748698328002
864,-2679,3616,2071,1748698328042
1273,-2583,3341,2072,1748698328083
1131,-2561,3410,2073,1748698328123
1133,-2554,2486,2074,1748698328163
1084,-2775,2174,2075,1748698328203
1287,-3711,680,2076,1748698328244
1136,-3955,690,2077,1748698328283
1342,-5060,264,2078,1748698328323
1056,-4936,-8,2079,1748698328364
1243,-3453,1392,2080,1748698328404
1043,-2903,2326,2081,1748698328444
1125,-2624,2613,2082,1748698328484
1000,-2605,2989,2083,1748698328524
1207,-2897,2428,2084,1748698328564
1079,-2939,2362,2085,1748698328604
1074,-3020,2502,2086,1748698328644
1181,-2896,2497,2087,1748698328684
996,-2987,2411,2088,1748698328724
1047,-3073,2554,2089,1748698328765
1188,-3060,2444,2090,1748698328804
1170,-3199,2528,2091,1748698328845
1205,-2877,2769,2092,1748698328885
1071,-3023,3339,2093,1748698328925
1304,-2901,2734,2094,1748698328965
1558,-1738,2766,2095,1748698329005
1874,-738,2474,2096,1748698329045
1111,-1167,3285,2097,1748698329085
493,-2159,3656,2098,1748698329125
727,-2992,3450,2099,1748698329168
622,-2622,3256,2100,1748698329206
894,-2305,3552,2101,1748698329246
637,-2261,3550,2102,1748698329286
935,-1758,3270,2103,1748698329329
237,-1354,3957,2104,1748698329366
303,-1067,4228,2105,1748698329406
56,-1186,4861,2106,1748698329446
763,-1595,3959,2107,1748698329488
9,-1848,4434,2108,1748698329527
-367,-794,5516,2109,1748698329567
988,-1169,4242,2110,1748698329607
1214,-1635,2949,2111,1748698329649
1784,-1869,1330,2112,1748698329687
1663,-2579,1347,2113,1748698329727
1505,-3257,1150,2114,1748698329767
1699,-3743,1104,2115,1748698329809
1640,-3707,966,2116,1748698329847
1874,-3078,1714,2117,1748698329887
2023,-3394,1152,2118,1748698329927
2082,-3679,563,2119,1748698329970
2156,-3782,418,2120,1748698330007
2224,-2680,852,2121,1748698330048
2069,-2653,1745,2122,1748698330088
1978,-2333,2231,2123,1748698330129
1997,-1652,2790,2124,1748698330168
2066,-2882,2095,2125,1748698330208
2083,-2698,2058,2126,1748698330248
1891,-2780,2658,2127,1748698330291
1914,-2977,2476,2128,1748698330328
2062,-1986,2606,2129,1748698330369
2035,-2401,2491,2130,1748698330408
1855,-2541,2420,2131,1748698330450
1841,-3340,2193,2132,1748698330489
1853,-3055,2136,2133,1748698330529
1955,-2391,2410,2134,1748698330569
2035,-2767,2283,2135,1748698330611
1938,-2921,2281,2136,1748698330649
2018,-2756,2301,2137,1748698330689
2002,-2890,2114,2138,1748698330729
1923,-2330,2567,2139,1748698330771
1816,-2482,2788,2140,1748698330809
1803,-2675,2559,2141,1748698330850
1775,-2588,2737,2142,1748698330890
1834,-2469,2719,2143,1748698330932
2054,-2599,1985,2144,1748698330970
1988,-2725,2469,2145,1748698331010
2007,-2216,2635,2146,1748698331050
1934,-2384,2721,2147,1748698331092
1755,-1716,3301,2148,1748698331130
1821,-1929,3191,2149,1748698331171
1903,-1972,2766,2150,1748698331210
1913,-1936,3295,2151,1748698331253
1907,-1979,3191,2152,1748698331291
2058,-1719,3113,2153,1748698331331
1974,-1039,3739,2154,1748698331371
2147,-289,3318,2155,1748698331413
1749,-914,3281,2156,1748698331451
2002,-1448,3153,2157,1748698331491
2058,-1757,3213,2158,1748698331531
1856,-1421,3481,2159,1748698331574
2089,-1478,3308,2160,1748698331612
2045,-1449,3305,2161,1748698331652
2176,-1609,3340,2162,1748698331692
2053,-1438,3198,2163,1748698331734
2030,-1048,2663,2164,1748698331772
1991,-1551,3379,2165,1748698331812
1753,-1462,3458,2166,1748698331852
2085,-1415,3151,2167,1748698331895
1990,-1506,3106,2168,1748698331932
2002,-1463,3261,2169,1748698331973
1911,-1283,3302,2170,1748698332012
2034,-1647,3292,2171,1748698332054
2051,-1938,3171,2172,1748698332093
2124,-1072,3261,2173,1748698332133
2107,-1492,3162,2174,1748698332173
2050,-873,3531,2175,1748698332216
2016,-892,3770,2176,1748698332253
1989,-1011,3558,2177,1748698332293
1782,-1401,3429,2178,1748698332334
1935,-1572,3031,2179,1748698332375
2175,-2932,2182,2180,1748698332414
2058,-2629,2289,2181,1748698332454
2134,-2128,2879,2182,1748698332494
1919,-2027,2959,2183,1748698332537
2060,-2133,2778,2184,1748698332575
2082,-1426,2932,2185,1748698332614
2012,-1176,3115,2186,1748698332654
1951,-1422,3263,2187,1748698332696
1847,-1582,3125,2188,1748698332735
2050,-2967,2058,2189,1748698332775
2007,-2272,2948,2190,1748698332815
2091,-1266,3573,2191,1748698332858
2015,-1935,3194,2192,1748698332895
1990,-2060,3031,2193,1748698332935
1918,-1550,3225,2194,1748698332975
2027,-1891,3068,2195,1748698333017
2077,-2262,2922,2196,1748698333056
2133,-1330,3224,2197,1748698333095
1992,-1339,3163,2198,1748698333136
2267,-1566,3094,2199,1748698333179
2092,-1860,2908,2200,1748698333216
2204,-1886,2568,2201,1748698333256
2121,-1906,3209,2202,1748698333296
2145,-998,3065,2203,1748698333338
2176,-1332,3045,2204,1748698333377
2015,-1783,3305,2205,1748698333417
1927,-1485,3129,2206,1748698333457
2102,-1394,2925,2207,1748698333499
2171,-1045,3347,2208,1748698333537
2188,-1002,3280,2209,1748698333577
2196,-1004,3177,2210,1748698333617
2130,-1364,3610,2211,1748698333659
2140,-1171,3391,2212,1748698333697
2018,-966,3627,2213,1748698333737
2203,-575,3754,2214,1748698333778
2045,-1122,3269,2215,1748698333820
2279,-636,2860,2216,1748698333857
2309,-992,3019,2217,1748698333898
2189,-1619,3347,2218,1748698333938
2186,-543,3455,2219,1748698333980
2315,-827,3332,2220,1748698334018
2198,-983,3168,2221,1748698334058
2301,-679,3378,2222,1748698334098
2315,-574,3083,2223,1748698334141
2055,-844,3054,2224,1748698334179
2306,-1528,3643,2225,1748698334218
2123,-673,3426,2226,1748698334258
2333,-1203,2981,2227,1748698334300
2297,-1013,3505,2228,1748698334339
2209,-893,3194,2229,1748698334379
1986,-861,3098,2230,1748698334419
2227,-798,3194,2231,1748698334461
2134,-1160,3016,2232,1748698334499
2181,-1154,3487,2233,1748698334539
2276,-1701,3041,2234,1748698334579
2090,-433,3203,2235,1748698334621
2053,136,3728,2236,1748698334659
1975,-1059,3437,2237,1748698334699
2136,-120,3598,2238,1748698334740
2123,-678,3439,2239,1748698334782
2000,-1009,3515,2240,1748698334820
2112,-174,3535,2241,1748698334860
2055,-1438,3370,2242,1748698334900
2393,-1169,2717,2243,1748698334942
2163,-766,3291,2244,1748698334981
2150,-762,3153,2245,1748698335020
2047,-1021,3672,2246,1748698335060
2088,-1650,3342,2247,1748698335103
2012,-990,3365,2248,1748698335140
2068,-1137,3271,2249,1748698335181
2036,-516,3701,2250,1748698335221
1983,-301,3637,2251,1748698335262
1893,-1069,3422,2252,1748698335301
2047,-825,3634,2253,1748698335341
2040,-978,3220,2254,1748698335381
1983,-1295,3373,2255,1748698335424
1909,-623,3657,2256,1748698335461
1995,-1370,3277,2257,1748698335501
1981,-1499,3186,2258,1748698335541
1843,-1292,3215,2259,1748698335584
1746,-2061,3109,2260,1748698335622
1832,-1916,3126,2261,1748698335662
1759,-1608,3102,2262,1748698335702
1723,-1929,3204,2263,1748698335744
1601,-2223,3124,2264,1748698335782
1652,-2453,2799,2265,1748698335822
1713,-2360,3031,2266,1748698335862
1690,-2436,2978,2267,1748698335904
1724,-2681,3000,2268,1748698335942
1771,-1721,3220,2269,1748698335983
1876,-1959,3135,2270,1748698336023
1721,-2174,3058,2271,1748698336065
1803,-2269,2922,2272,1748698336103
1788,-2116,3110,2273,1748698336143
1677,-1775,3518,2274,1748698336183
1656,-1094,3490,2275,1748698336225
1483,-1098,3495,2276,1748698336263
1681,-1140,3496,2277,1748698336303
1571,-888,3671,2278,1748698336343
1700,-728,3927,2279,1748698336386
1797,-832,3656,2280,1748698336424
1689,-1510,3267,2281,1748698336464
1552,-980,3282,2282,1748698336504
1530,-668,3419,2283,1748698336546
1396,-831,3551,2284,1748698336584
1557,-1267,3397,2285,1748698336624
1571,-653,3602,2286,1748698336664
1623,-672,3297,2287,1748698336707
1527,-373,4097,2288,1748698336745
1461,-828,3864,2289,1748698336785
1591,-1590,3463,2290,1748698336825
1472,-1029,3849,2291,1748698336867
1709,-985,3566,2292,1748698336905
1610,-782,3563,2293,1748698336945
1534,-1111,3665,2294,1748698336986
1562,-1271,3901,2295,1748698337028
1496,-756,3670,2296,1748698337066
1627,-1173,3566,2297,1748698337106
1608,-1078,3543,2298,1748698337146
1767,-884,3272,2299,1748698337188
1752,-1221,3342,2300,1748698337226
1697,-1862,2989,2301,1748698337267
1720,-1747,3293,2302,1748698337307
1609,-1200,3683,2303,1748698337350
1583,-1397,3666,2304,1748698337388
1522,-1376,3537,2305,1748698337427
1566,-1989,3239,2306,1748698337468
1509,-1555,4075,2307,1748698337510
1133,-1056,3925,2308,1748698337548
1470,-1990,3002,2309,1748698337588
1290,-2427,3255,2310,1748698337628
1384,-2587,2292,2311,1748698337671
1712,-2628,1236,2312,1748698337708
1198,-3083,-263,2313,1748698337748
997,-4631,-282,2314,1748698337789
1398,-4460,700,2315,1748698337830
1120,-4214,290,2316,1748698337868
1379,-4680,-411,2317,1748698337909
1173,-3854,797,2318,1748698337949
1000,-3306,1632,2319,1748698337992
1300,-3848,770,2320,1748698338029
979,-3964,1523,2321,1748698338069
1012,-3764,1663,2322,1748698338109
1229,-3540,1731,2323,1748698338151
1068,-3230,1898,2324,1748698338190
878,-3314,2219,2325,1748698338229
887,-2799,2628,2326,1748698338269
814,-2770,2457,2327,1748698338312
877,-3534,2603,2328,1748698338350
1159,-3000,2198,2329,1748698338390
983,-3143,2030,2330,1748698338430
911,-3082,1769,2331,1748698338471
1103,-3476,1661,2332,1748698338510
1145,-3841,1631,2333,1748698338550
1202,-3826,1473,2334,1748698338591
843,-3525,1868,2335,1748698338633
1031,-3729,2829,2336,1748698338670
758,-3882,3557,2337,1748698338710
641,-4563,2481,2338,1748698338750
1294,-3623,2808,2339,1748698338793
1819,-3416,1826,2340,1748698338831
2681,-1823,765,2341,1748698338871
2179,-414,1582,2342,1748698338911
2405,2802,3190,2343,1748698338954
1443,1485,3755,2344,1748698338991
903,-12,3476,2345,1748698339031
1096,1570,3614,2346,1748698339071
759,1673,4010,2347,1748698339113
913,-306,3641,2348,1748698339151
868,2767,3584,2349,1748698339192
982,1556,3067,2350,1748698339232
786,2971,3338,2351,1748698339274
934,2455,3342,2352,1748698339312
990,2369,3733,2353,1748698339352
1041,3009,3373,2354,1748698339392
897,2199,2912,2355,1748698339434
1015,1975,3333,2356,1748698339472
1142,2188,3453,2357,1748698339512
1109,2526,3389,2358,1748698339552
1054,1832,3160,2359,1748698339595
1157,2325,3351,2360,1748698339633
948,2278,3328,2361,1748698339673
996,2115,3499,2362,1748698339713
1101,2036,3371,2363,1748698339755
1004,1856,3319,2364,1748698339793
878,2158,3727,2365,1748698339833
865,1997,4383,2366,1748698339873
415,1084,3886,2367,1748698339916
1206,1749,4082,2368,1748698339953
1577,1790,3803,2369,1748698339994
1859,318,2063,2370,1748698340034
2190,-649,812,2371,1748698340075
1886,-1934,1241,2372,1748698340114
1968,-3159,2108,2373,1748698340154
1531,-2849,2799,2374,1748698340194
1398,-3246,3267,2375,1748698340237
1335,-3172,3392,2376,1748698340274
1272,-3147,3095,2377,1748698340314
1059,-3490,2667,2378,1748698340355
1114,-3599,2736,2379,1748698340397
1472,-2926,2022,2380,1748698340435
1540,-2863,1938,2381,1748698340475
1354,-3842,1651,2382,1748698340515
1499,-3394,1638,2383,1748698340555
1440,-3415,1729,2384,1748698340595
1448,-3953,1494,2385,1748698340635
1470,-4178,1306,2386,1748698340675
1480,-4504,871,2387,1748698340715
1483,-4253,1022,2388,1748698340756
1550,-4143,1739,2389,1748698340796
1975,-4550,1276,2390,1748698340836
1742,-4315,1545,2391,1748698340876
1950,-3116,1913,2392,1748698340916
2132,-2621,1766,2393,1748698340956
2119,-2109,1839,2394,1748698340997
2206,-1723,2002,2395,1748698341036
2307,-1263,1965,2396,1748698341076
2225,-1285,2161,2397,1748698341117
2482,-1230,2196,2398,1748698341157
2561,-1427,2244,2399,1748698341197
2885,-1384,2206,2400,1748698341237
2808,-1324,2345,2401,1748698341277
3106,-1482,2408,2402,1748698341317
2947,-1397,2384,2403,1748698341358
3036,-1419,2401,2404,1748698341398
3103,-1572,2361,2405,1748698341437
2944,-1430,2385,2406,1748698341478
2959,-1489,2331,2407,1748698341518
2975,-1586,2345,2408,1748698341558
3030,-1332,2287,2409,1748698341598
3201,-1405,2220,2410,1748698341638
3008,-1401,2326,2411,1748698341679
3113,-1584,2169,2412,1748698341718
3000,-1443,2253,2413,1748698341758
3139,-1271,2378,2414,1748698341799
3057,-1499,2187,2415,1748698341839
3003,-1453,2173,2416,1748698341878
3040,-1394,2132,2417,1748698341919
3127,-1471,2384,2418,1748698341959
3120,-1323,2340,2419,1748698342000
3093,-1356,2330,2420,1748698342039
3155,-1559,2236,2421,1748698342079
3063,-1380,2271,2422,1748698342119
2953,-1180,2373,2423,1748698342160
3194,-1650,2086,2424,1748698342199
3089,-1413,2249,2425,1748698342239
2968,-1092,2139,2426,1748698342279
3101,-1576,2345,2427,1748698342320
2933,-1539,2190,2428,1748698342359
2988,-1152,2129,2429,1748698342400
2877,-1310,2510,2430,1748698342440
2531,-1005,2373,2431,1748698342480
2442,-995,2351,2432,1748698342520
2789,-254,2728,2433,1748698342560
2563,-340,2985,2434,1748698342600
2535,-1828,2810,2435,1748698342641
2547,-1727,2578,2436,1748698342680
2278,-2631,2665,2437,1748698342720
2393,-3428,2500,2438,1748698342760
2350,-2713,2448,2439,1748698342801
2249,-2929,2698,2440,1748698342841
2239,-2448,2460,2441,1748698342881
2215,-2671,2187,2442,1748698342921
2351,-2720,2498,2443,1748698342961
2131,-2700,2223,2444,1748698343001
2323,-2750,2170,2445,1748698343041
2015,-2654,2243,2446,1748698343081
2246,-2712,1807,2447,1748698343122
2035,-2913,1973,2448,1748698343161
2117,-2831,2016,2449,1748698343202
2115,-2816,1533,2450,1748698343241
1922,-3196,1544,2451,1748698343282
1948,-3247,1120,2452,1748698343322
1980,-3444,1311,2453,1748698343362
1763,-3386,1493,2454,1748698343402
1866,-3526,953,2455,1748698343442
1816,-3767,1129,2456,1748698343482
1842,-3434,1139,2457,1748698343522
1734,-3278,1155,2458,1748698343562
1665,-3834,1258,2459,1748698343603
1443,-3405,2032,2460,1748698343642
1728,-4161,1101,2461,1748698343682
1530,-2936,2294,2462,1748698343722
1588,-1647,3238,2463,1748698343763
1600,-3095,2311,2464,1748698343803
1587,-2105,3175,2465,1748698343843
1618,-1757,3443,2466,1748698343883
1735,-2161,3054,2467,1748698343923
1605,-1461,3480,2468,1748698343963
1606,-2193,3280,2469,1748698344003
1644,-1024,3454,2470,1748698344043
1599,-1282,3304,2471,1748698344084
1650,-1074,3512,2472,1748698344123
1829,-633,3228,2473,1748698344163
1558,-653,3630,2474,1748698344204
1577,-629,3536,2475,1748698344244
1810,-197,3618,2476,1748698344284
1579,-614,3973,2477,1748698344324
1687,-880,3936,2478,1748698344364
1821,-351,3666,2479,1748698344405
1685,-755,3414,2480,1748698344444
1526,-219,3984,2481,1748698344484
1474,24,4079,2482,1748698344524
1557,-489,3708,2483,1748698344565
1599,-401,3659,2484,1748698344605
1499,-437,3794,2485,1748698344644
1596,-463,3803,2486,1748698344685
1640,-666,3598,2487,1748698344725
1573,-394,3728,2488,1748698344765
1533,-686,3793,2489,1748698344805
1680,-335,3622,2490,1748698344845
1516,-600,3618,2491,1748698344885
1513,-545,3804,2492,1748698344926
1453,-443,3781,2493,1748698344965
1521,-214,4081,2494,1748698345006
1555,-645,3498,2495,1748698345046
1502,-536,3803,2496,1748698345086
1499,-565,3698,2497,1748698345126
1341,-413,3793,2498,1748698345166
1310,-737,3497,2499,1748698345206
1258,-974,3595,2500,1748698345247
1260,-630,3562,2501,1748698345286
1421,-829,3529,2502,1748698345326
1387,-787,3972,2503,1748698345366
1485,-751,3960,2504,1748698345407
1429,-583,3898,2505,1748698345447
1224,-580,3954,2506,1748698345487
1107,-856,4006,2507,1748698345527
1170,-914,4087,2508,1748698345568
1128,-1073,3844,2509,1748698345607
1224,-815,3816,2510,1748698345647
1165,-849,3709,2511,1748698345687
1164,-1114,3730,2512,1748698345728
1196,-1060,3762,2513,1748698345768
1244,-1235,3755,2514,1748698345808
1160,-1292,3759,2515,1748698345848
1213,-1189,3725,2516,1748698345889
1205,-1408,3562,2517,1748698345928
1187,-1197,3658,2518,1748698345968
1277,-1254,3654,2519,1748698346008
1242,-1332,3615,2520,1748698346049
1199,-1027,3806,2521,1748698346088
1220,-1044,3773,2522,1748698346128
1214,-1349,3669,2523,1748698346168
1282,-1081,3648,2524,1748698346209
1245,-1133,3674,2525,1748698346249
1139,-1233,3422,2526,1748698346289
1200,-1068,3349,2527,1748698346329
1131,-1375,3953,2528,1748698346369
1251,-1259,3824,2529,1748698346409
1314,-1144,3651,2530,1748698346449
1232,-1267,3650,2531,1748698346489
1143,-1481,3737,2532,1748698346530
1196,-1385,3721,2533,1748698346569
1254,-1263,3476,2534,1748698346609
1194,-1365,3681,2535,1748698346649
1138,-1422,3761,2536,1748698346690
1197,-1456,3591,2537,1748698346729
1257,-1367,3558,2538,1748698346770
1192,-1580,3517,2539,1748698346810
1160,-1643,3632,2540,1748698346850
1093,-1365,3656,2541,1748698346890
1260,-1476,3512,2542,1748698346930
1230,-1363,3798,2543,1748698346970
931,-1345,3944,2544,1748698347011
1161,-1906,3667,2545,1748698347050
1077,-1295,3544,2546,1748698347090
1044,-1423,3569,2547,1748698347130
1058,-1452,4008,2548,1748698347171
1447,-1375,4076,2549,1748698347211
1077,-1818,3658,2550,1748698347251
1039,-1079,3424,2551,1748698347291
852,-1378,3437,2552,1748698347331
1053,-1230,3233,2553,1748698347371
960,-1551,3266,2554,1748698347411
1081,-2324,3130,2555,1748698347451
1078,-2388,3210,2556,1748698347492
1120,-2231,3287,2557,1748698347531
1268,-2464,3389,2558,1748698347571
1195,-2342,3588,2559,1748698347612
1150,-2156,3336,2560,1748698347652
1124,-2021,3231,2561,1748698347692
1138,-2153,2985,2562,1748698347732
918,-2603,3210,2563,1748698347772
831,-2008,3893,2564,1748698347813
741,-2354,3643,2565,1748698347852
860,-2504,3143,2566,1748698347892
884,-2033,2893,2567,1748698347932
767,-2108,2949,2568,1748698347973
523,-2470,3101,2569,1748698348013
307,-2236,3308,2570,1748698348053
46,-2483,3627,2571,1748698348093
-564,-3090,5015,2572,1748698348133
-897,-2826,5497,2573,1748698348173
1493,-472,3949,2574,1748698348213
1395,-1346,2373,2575,1748698348253
2290,-1422,2420,2576,1748698348294
2129,-1053,1790,2577,1748698348333
1674,-1175,2214,2578,1748698348373
1162,-1619,2244,2579,1748698348414
199,-941,2926,2580,1748698348454
-865,-1490,4593,2581,1748698348494
-417,176,4769,2582,1748698348534
-388,-819,4840,2583,1748698348574
-459,-257,3912,2584,1748698348615
-250,13,3430,2585,1748698348654
1610,-678,7692,2586,1748698348694
-628,419,3659,2587,1748698348734
-627,499,4099,2588,1748698348775
398,264,3999,2589,1748698348815
-86,124,4251,2590,1748698348855
75,31,4037,2591,1748698348895
7,-78,4030,2592,1748698348935
-53,-100,4121,2593,1748698348975
5,49,4086,2594,1748698349015
-65,248,4098,2595,1748698349055
-120,9,4088,2596,1748698349096
-117,-326,4084,2597,1748698349135
38,-31,4099,2598,1748698349175
113,-381,4020,2599,1748698349216
-47,-425,4032,2600,1748698349256
36,-256,3991,2601,1748698349295
80,-341,4046,2602,1748698349335
56,-455,4062,2603,1748698349375
95,-300,4126,2604,1748698349416
61,-565,4026,2605,1748698349455
135,-699,4049,2606,1748698349495
81,-540,3997,2607,1748698349535
62,-702,4032,2608,1748698349576
426,-754,4122,2609,1748698349616
106,-794,3958,2610,1748698349656
145,-362,4030,2611,1748698349696
56,-607,3985,2612,1748698349736
69,-427,4153,2613,1748698349776
148,-731,3982,2614,1748698349816
198,-503,4034,2615,1748698349856
156,-506,4068,2616,1748698349896
198,-290,4059,2617,1748698349936
239,-424,4047,2618,1748698349976
137,-422,4027,2619,1748698350017
118,-209,4086,2620,1748698350057
172,-755,3919,2621,1748698350097
155,-124,3955,2622,1748698350137
175,431,4091,2623,1748698350177
-23,246,4126,2624,1748698350217
-104,390,4080,2625,1748698350257
-24,613,4095,2626,1748698350298
35,287,4074,2627,1748698350337
-1,697,4086,2628,1748698350377
-81,219,3999,2629,1748698350417
-20,275,4041,2630,1748698350460
-15,181,4070,2631,1748698350497
-27,514,4041,2632,1748698350537
-31,283,4041,2633,1748698350577
-6,242,4020,2634,1748698350619
-37,471,4066,2635,1748698350658
-21,385,4080,2636,1748698350698
9,210,4021,2637,1748698350738
11,327,4034,2638,1748698350780
39,327,4077,2639,1748698350818
-48,601,4079,2640,1748698350858
67,412,4014,2641,1748698350898
-159,192,4009,2642,1748698350940
-253,203,3981,2643,1748698350978
-276,258,3850,2644,1748698351019
-279,313,4079,2645,1748698351059
-205,606,4155,2646,1748698351101
-257,134,4033,2647,1748698351139
-158,335,4137,2648,1748698351179
-99,370,3705,2649,1748698351219
-369,1007,3801,2650,1748698351261
-431,667,4403,2651,1748698351299
-456,321,4023,2652,1748698351339
-459,258,4079,2653,1748698351379
-451,115,3981,2654,1748698351422
-250,513,4015,2655,1748698351460
-516,834,4404,2656,1748698351500
-261,444,3397,2657,1748698351540
-512,504,4270,2658,1748698351582
-379,89,4152,2659,1748698351620
-537,76,3770,2660,1748698351660
-2020,1019,5134,2661,1748698351700
777,368,4135,2662,1748698351743
-115,306,4170,2663,1748698351781
603,447,4192,2664,1748698351821
-80,306,3922,2665,1748698351861
42,741,4216,2666,1748698351902
-57,876,4200,2667,1748698351941
180,567,4070,2668,1748698351981
125,495,4013,2669,1748698352021
443,397,4307,2670,1748698352064
-49,451,4572,2671,1748698352101
103,326,4004,2672,1748698352141
249,286,4030,2673,1748698352182
166,350,4059,2674,1748698352224
124,300,4105,2675,1748698352262
169,308,4081,2676,1748698352302
127,336,4065,2677,1748698352342
94,384,4087,2678,1748698352385
123,312,4063,2679,1748698352423
106,211,4090,2680,1748698352462
180,339,4041,2681,1748698352502
170,365,4060,2682,1748698352544
102,313,4070,2683,1748698352582
163,149,4123,2684,1748698352623
97,399,4110,2685,1748698352663
150,424,4075,2686,1748698352705
165,425,4079,2687,1748698352743
122,379,4083,2688,1748698352783
178,403,4074,2689,1748698352823
154,428,4056,2690,1748698352865
120,447,4052,2691,1748698352903
149,432,4050,2692,1748698352943
136,438,4052,2693,1748698352984
151,447,4063,2694,1748698353027
131,463,4060,2695,1748698353064
120,440,4065,2696,1748698353104
109,410,4071,2697,1748698353144
132,388,4077,2698,1748698353186
173,404,4064,2699,1748698353225
159,416,4059,2700,1748698353264
150,397,4047,2701,1748698353304
138,417,4067,2702,1748698353347
144,390,4078,2703,1748698353385
139,390,4076,2704,1748698353425
155,398,4069,2705,1748698353465
164,434,4062,2706,1748698353507
149,377,4065,2707,1748698353545
156,418,4065,2708,1748698353585
139,403,4074,2709,1748698353626
160,419,4074,2710,1748698353668
188,386,4064,2711,1748698353706
141,391,4055,2712,1748698353746
148,397,4065,2713,1748698353786
158,399,4058,2714,1748698353828
187,430,4045,2715,1748698353866
168,420,4050,2716,1748698353906
179,379,4038,2717,1748698353946
177,405,4052,2718,1748698353989
196,434,4033,2719,1748698354027
158,349,4037,2720,1748698354067
126,496,4048,2721,1748698354107
142,389,4066,2722,1748698354149
64,547,4051,2723,1748698354187
-10,447,4071,2724,1748698354228
62,463,4077,2725,1748698354267
118,424,4039,2726,1748698354310
31,326,4017,2727,1748698354347
895,633,3847,2728,1748698354387
113,358,4074,2729,1748698354428
94,398,4063,2730,1748698354469
160,403,4027,2731,1748698354508
130,362,4054,2732,1748698354548
114,394,4064,2733,1748698354588
89,389,4082,2734,1748698354631
169,332,4061,2735,1748698354668
177,275,4017,2736,1748698354708
154,384,4079,2737,1748698354748
140,386,4091,2738,1748698354790
142,380,4021,2739,1748698354829
119,350,4067,2740,1748698354869
114,393,4064,2741,1748698354909
87,388,4064,2742,1748698354951
95,217,4063,2743,1748698354989
112,352,4040,2744,1748698355029
118,255,4081,2745,1748698355069
111,408,4066,2746,1748698355111
118,366,4110,2747,1748698355149
72,139,4056,2748,1748698355189
114,253,4081,2749,1748698355230
62,179,4088,2750,1748698355272
34,195,4032,2751,1748698355310
49,203,4103,2752,1748698355349
22,183,4116,2753,1748698355390
49,173,4048,2754,1748698355432
56,159,4083,2755,1748698355470
48,211,4070,2756,1748698355510
74,237,4047,2757,1748698355550
58,200,4076,2758,1748698355593
67,226,4061,2759,1748698355631
73,218,4079,2760,1748698355670
83,157,4102,2761,1748698355710
37,175,4024,2762,1748698355752
85,264,4091,2763,1748698355791
53,248,4049,2764,1748698355831
36,174,4057,2765,1748698355871
68,252,4059,2766,1748698355914
54,272,4070,2767,1748698355951
48,241,4066,2768,1748698355991
48,225,4071,2769,1748698356032
45,287,4074,2770,1748698356073
79,297,4086,2771,1748698356111
55,209,4057,2772,1748698356152
65,252,4083,2773,1748698356192
50,251,4080,2774,1748698356235
86,209,4080,2775,1748698356272
63,384,4082,2776,1748698356312
27,236,4065,2777,1748698356352
34,289,4021,2778,1748698356394
10,458,4071,2779,1748698356433
40,374,4048,2780,1748698356472
55,472,4069,2781,1748698356513
62,377,3885,2782,1748698356555
-100,701,4135,2783,1748698356593
214,312,3975,2784,1748698356633
-232,1192,4030,2785,1748698356673
-370,1454,4035,2786,1748698356715
-179,787,3892,2787,1748698356753
-241,1028,4031,2788,1748698356793
-222,688,3997,2789,1748698356834
-224,772,3951,2790,1748698356876
-282,899,3999,2791,1748698356914
-241,715,3943,2792,1748698356954
-300,856,3937,2793,1748698356994
-295,707,3982,2794,1748698357036
-270,929,4217,2795,1748698357074
-159,752,3901,2796,1748698357114
-259,771,3912,2797,1748698357154
-316,1212,4123,2798,1748698357197
-186,779,4026,2799,1748698357235
-260,460,3946,2800,1748698357275
-243,821,4030,2801,1748698357315
-177,811,4040,2802,1748698357357
-160,859,4065,2803,1748698357395
-139,643,4027,2804,1748698357435
-145,742,4044,2805,1748698357475
-186,888,4055,2806,1748698357518
-183,433,3973,2807,1748698357555
-215,856,4009,2808,1748698357595
-168,679,3968,2809,1748698357636
-215,784,4027,2810,1748698357677
-160,521,4040,2811,1748698357716
-131,575,4033,2812,1748698357756
-148,692,4034,2813,1748698357796
-166,611,4044,2814,1748698357839
-176,657,4037,2815,1748698357876
-152,638,4053,2816,1748698357916
-165,610,4063,2817,1748698357957
-151,565,4045,2818,1748698357998
-161,603,4050,2819,1748698358037
-189,537,4054,2820,1748698358077
-203,675,4050,2821,1748698358117
-162,569,4052,2822,1748698358160
-172,605,4065,2823,1748698358197
-180,586,4040,2824,1748698358238
-196,583,4052,2825,1748698358277
-204,570,4029,2826,1748698358319
-171,559,4033,2827,1748698358358
-150,557,4035,2828,1748698358398
-148,605,4059,2829,1748698358438
-171,525,4025,2830,1748698358480
-142,542,4029,2831,1748698358518
-168,574,4024,2832,1748698358558
-182,577,4028,2833,1748698358598
-179,587,4035,2834,1748698358640
-147,556,4046,2835,1748698358678
-131,596,4026,2836,1748698358718
-144,575,4102,2837,1748698358758
-141,548,4049,2838,1748698358801
-127,568,4007,2839,1748698358839
-145,582,4005,2840,1748698358879
-157,580,4058,2841,1748698358919
-141,599,4047,2842,1748698358960
-135,566,4015,2843,1748698358999
-133,544,4028,2844,1748698359039
-76,555,4043,2845,1748698359079
-100,475,4012,2846,1748698359122
-131,583,4057,2847,1748698359159
-150,543,4032,2848,1748698359199
-137,524,4039,2849,1748698359240
-151,615,4083,2850,1748698359281
-177,470,4039,2851,1748698359320
-169,439,4036,2852,1748698359360
-127,580,4056,2853,1748698359400
-84,580,4054,2854,1748698359443
-106,536,4035,2855,1748698359480
-92,582,4051,2856,1748698359520
-130,559,4042,2857,1748698359560
-140,530,4010,2858,1748698359602
-114,537,4044,2859,1748698359641
-117,550,4067,2860,1748698359680
-125,526,4070,2861,1748698359720
-114,534,4039,2862,1748698359763
-144,505,4050,2863,1748698359801
-119,525,4049,2864,1748698359841
-145,553,4053,2865,1748698359881
-146,525,4036,2866,1748698359923
-123,502,4053,2867,1748698359961
-92,413,4055,2868,1748698360001
-98,452,4053,2869,1748698360041
-90,490,4056,2870,1748698360084
-63,371,4069,2871,1748698360121
-86,344,4029,2872,1748698360161
-66,432,4010,2873,1748698360201
-77,464,4061,2874,1748698360244
-114,442,4045,2875,1748698360282
-146,467,4075,2876,1748698360322
-151,498,4065,2877,1748698360362
-147,501,4042,2878,1748698360404
-60,545,4053,2879,1748698360442
-79,457,4022,2880,1748698360482
-77,646,4052,2881,1748698360522
-7,477,4004,2882,1748698360564
18,633,4045,2883,1748698360602
-13,602,4036,2884,1748698360643
33,593,4052,2885,1748698360683
55,644,4021,2886,1748698360725
52,718,4039,2887,1748698360763
117,825,4033,2888,1748698360803
78,799,4000,2889,1748698360843
91,764,3996,2890,1748698360885
117,711,3999,2891,1748698360923
69,980,3991,2892,1748698360963
125,815,3982,2893,1748698361003
158,843,3995,2894,1748698361046
214,892,3984,2895,1748698361084
194,865,3990,2896,1748698361124
149,718,4023,2897,1748698361164
63,914,4055,2898,1748698361206
90,836,3994,2899,1748698361244
121,893,4024,2900,1748698361284
166,763,4005,2901,1748698361324
113,882,4021,2902,1748698361367
146,737,4038,2903,1748698361404
174,639,3945,2904,1748698361445
131,1024,4032,2905,1748698361485
110,763,4036,2906,1748698361526
133,627,4026,2907,1748698361565
139,749,4092,2908,1748698361605
157,750,4047,2909,1748698361645
247,640,4072,2910,1748698361688
104,759,3947,2911,1748698361725
196,647,4033,2912,1748698361765
171,694,4018,2913,1748698361806
157,584,4005,2914,1748698361847
155,748,4057,2915,1748698361886
119,806,4056,2916,1748698361926
158,670,4046,2917,1748698361966
135,636,4066,2918,1748698362009
147,648,3998,2919,1748698362047
110,638,3971,2920,1748698362086
119,704,4031,2921,1748698362126
139,654,4027,2922,1748698362169
138,704,4016,2923,1748698362207
157,752,4047,2924,1748698362247
128,805,3992,2925,1748698362287
167,570,3993,2926,1748698362330
131,523,4007,2927,1748698362367
166,878,4004,2928,1748698362407
142,1036,4091,2929,1748698362447
50,411,3998,2930,1748698362489
78,819,4057,2931,1748698362527
199,838,4003,2932,1748698362567
86,732,4002,2933,1748698362607
101,586,4004,2934,1748698362650
150,640,4023,2935,1748698362688
69,753,4060,2936,1748698362728
103,696,4016,2937,1748698362768
104,832,3996,2938,1748698362809
131,634,4020,2939,1748698362848
30,777,4128,2940,1748698362888
222,536,4008,2941,1748698362928
121,986,3997,2942,1748698362971
30,621,4069,2943,1748698363008
76,735,3945,2944,1748698363048
187,496,4010,2945,1748698363088
96,1027,4102,2946,1748698363130
135,717,4024,2947,1748698363168
161,129,3976,2948,1748698363209
98,1011,4078,2949,1748698363249
151,702,4025,2950,1748698363291
186,691,4012,2951,1748698363329
172,515,4018,2952,1748698363369
130,558,4029,2953,1748698363409
131,514,4059,2954,1748698363451
58,612,4060,2955,1748698363489
-8,632,4027,2956,1748698363529
-41,660,4024,2957,1748698363570
48,692,4008,2958,1748698363612
83,661,4023,2959,1748698363650
145,648,4023,2960,1748698363690
145,677,4016,2961,1748698363730
113,695,4005,2962,1748698363772
89,694,4036,2963,1748698363810
57,695,4010,2964,1748698363851
76,678,4042,2965,1748698363890
85,668,4032,2966,1748698363933
102,634,4037,2967,1748698363971
87,650,4019,2968,1748698364011
92,677,4018,2969,1748698364051
77,714,4051,2970,1748698364093
103,624,4041,2971,1748698364131
77,658,4027,2972,1748698364171
90,668,4042,2973,1748698364211
74,721,4041,2974,1748698364254
46,664,4029,2975,1748698364291
85,712,4014,2976,1748698364331
131,813,4003,2977,1748698364371
114,737,4017,2978,1748698364413
55,776,4028,2979,1748698364452
97,699,4012,2980,1748698364492
109,727,4064,2981,1748698364532
175,621,4014,2982,1748698364574
155,536,4107,2983,1748698364612
112,816,4002,2984,1748698364652
86,566,4066,2985,1748698364692
180,878,3845,2986,1748698364734
185,721,3968,2987,1748698364772
-4,690,4160,2988,1748698364813
142,494,4100,2989,1748698364853
177,622,3917,2990,1748698364895
131,424,4066,2991,1748698364933
111,624,4035,2992,1748698364973
109,713,4025,2993,1748698365013
109,526,4013,2994,1748698365055
145,632,4030,2995,1748698365093
143,389,4062,2996,1748698365133
108,706,4026,2997,1748698365174
69,477,3998,2998,1748698365216
92,530,4027,2999,1748698365254
76,658,4055,3000,1748698365294
123,366,4100,3001,1748698365334
200,661,4000,3002,1748698365376
82,929,3983,3003,1748698365414
46,444,4040,3004,1748698365455
68,494,4018,3005,1748698365494
188,907,3933,3006,1748698365537
190,537,4079,3007,1748698365574
108,1048,4061,3008,1748698365615
1,554,4129,3009,1748698365655
199,374,3880,3010,1748698365696
105,1210,4017,3011,1748698365735
120,315,4077,3012,1748698365775
215,840,4027,3013,1748698365815
116,598,4075,3014,1748698365858
60,695,4051,3015,1748698365895
136,535,3973,3016,1748698365935
93,829,4050,3017,1748698365975
60,728,3992,3018,1748698366017
95,619,4005,3019,1748698366056
123,551,3957,3020,1748698366096
81,729,3998,3021,1748698366136
126,690,4038,3022,1748698366178
58,663,4055,3023,1748698366216
103,643,4030,3024,1748698366257
68,617,4033,3025,1748698366296
123,666,4016,3026,1748698366338
132,621,4014,3027,1748698366377
153,596,4033,3028,1748698366417
160,557,4031,3029,1748698366457
102,659,3897,3030,1748698366500
64,618,4078,3031,1748698366537
43,541,4108,3032,1748698366577
121,567,4030,3033,1748698366617
100,566,4001,3034,1748698366659
110,592,4021,3035,1748698366697
131,567,4057,3036,1748698366738
61,598,4032,3037,1748698366778
88,619,4037,3038,1748698366820
88,595,4039,3039,1748698366858
65,616,4041,3040,1748698366898
46,606,4031,3041,1748698366938
42,613,4010,3042,1748698366980
25,534,4046,3043,1748698367018
-22,521,4031,3044,1748698367058
40,566,4044,3045,1748698367098
41,608,4007,3046,1748698367141
25,672,4022,3047,1748698367178
32,699,4030,3048,1748698367219
30,592,4046,3049,1748698367259
19,624,4010,3050,1748698367300
20,623,4016,3051,1748698367339
-39,652,4037,3052,1748698367379
-22,674,4046,3053,1748698367419
-21,588,4043,3054,1748698367462
-76,606,4056,3055,1748698367499
-2,655,4048,3056,1748698367539
-22,487,4011,3057,1748698367579
100,574,3992,3058,1748698367621
-269,669,4058,3059,1748698367660
36,508,4093,3060,1748698367700
366,404,4026,3061,1748698367740
-95,747,4132,3062,1748698367782
-39,-193,4038,3063,1748698367820
-164,2252,4082,3064,1748698367860
465,499,4096,3065,1748698367900
-123,-17,4122,3066,1748698367942
-243,-229,3917,3067,1748698367980
-42,108,3980,3068,1748698368020
-182,138,4114,3069,1748698368061
-117,213,4025,3070,1748698368103
-157,45,4118,3071,1748698368141
-26,-107,4074,3072,1748698368181
80,275,4135,3073,1748698368221
-52,-206,4059,3074,1748698368263
-69,-155,4063,3075,1748698368301
-26,2,4103,3076,1748698368341
-12,-80,4086,3077,1748698368381
21,-71,4066,3078,1748698368424
-8,-234,4065,3079,1748698368462
13,-234,4054,3080,1748698368502
91,-145,4089,3081,1748698368542
-26,-196,4064,3082,1748698368584
36,-242,4036,3083,1748698368622
36,-273,4062,3084,1748698368663
14,-232,4077,3085,1748698368702
40,-206,4109,3086,1748698368745
32,-266,4074,3087,1748698368783
51,-207,4084,3088,1748698368823
34,-132,4106,3089,1748698368863
-5,-252,4053,3090,1748698368905
38,-129,4086,3091,1748698368943
28,-126,4128,3092,1748698368983
-1,-159,4066,3093,1748698369023
83,-175,4058,3094,1748698369066
29,-77,4090,3095,1748698369104
100,37,4103,3096,1748698369144
23,29,4092,3097,1748698369184
-25,-72,4103,3098,1748698369226
53,-88,4072,3099,1748698369264
45,-103,4106,3100,1748698369304
-15,-60,4068,3101,1748698369344
49,-95,4099,3102,1748698369387
19,15,4087,3103,1748698369424
67,51,4091,3104,1748698369465
14,-26,4135,3105,1748698369505
-130,-296,4098,3106,1748698369546
88,116,4119,3107,1748698369585
167,-68,4092,3108,1748698369625
306,-255,4009,3109,1748698369665
495,-448,3983,3110,1748698369708
382,-566,3954,3111,1748698369745
144,-643,4008,3112,1748698369785
48,-615,4034,3113,1748698369826
63,-481,4049,3114,1748698369868
193,-416,4049,3115,1748698369906
154,-557,4056,3116,1748698369946
208,-596,4015,3117,1748698369986
146,-591,3989,3118,1748698370029
73,-531,4051,3119,1748698370067
202,-455,4046,3120,1748698370106
243,-470,4046,3121,1748698370146
255,-416,4041,3122,1748698370189
225,-520,4031,3123,1748698370227
168,-472,4040,3124,1748698370267
106,-393,4065,3125,1748698370307
112,-497,4052,3126,1748698370350
103,-295,4062,3127,1748698370387
114,-256,4088,3128,1748698370427
3,-96,4088,3129,1748698370468
27,-74,4099,3130,1748698370509
56,-18,4104,3131,1748698370547
98,-19,4081,3132,1748698370588
123,-145,4069,3133,1748698370627
17,-20,4136,3134,1748698370670
211,63,4100,3135,1748698370708
603,226,4106,3136,1748698370748
-71,-524,4037,3137,1748698370788
475,-469,3986,3138,1748698370830
388,-628,3964,3139,1748698370868
280,-636,4017,3140,1748698370908
108,-597,3973,3141,1748698370948
66,-497,4062,3142,1748698370991
205,-406,4011,3143,1748698371028
215,-404,4050,3144,1748698371069
178,-479,4004,3145,1748698371109
143,-581,4000,3146,1748698371150
33,-522,4028,3147,1748698371189
-57,-503,4027,3148,1748698371229
-15,-128,4092,3149,1748698371269
33,-466,4005,3150,1748698371312
55,-482,4026,3151,1748698371349
49,-393,4061,3152,1748698371389
-27,-344,4076,3153,1748698371429
-3,-268,4083,3154,1748698371471
19,-75,4129,3155,1748698371509
-5,-544,4096,3156,1748698371550
-38,-579,3930,3157,1748698371590
-23,-785,3958,3158,1748698371632
3,-713,3992,3159,1748698371670
70,-665,4025,3160,1748698371710
-53,-605,3993,3161,1748698371750
-122,-502,4009,3162,1748698371792
-39,-495,4048,3163,1748698371830
-35,-573,4043,3164,1748698371871
-173,-933,3960,3165,1748698371910
-152,-948,3907,3166,1748698371953
-116,-830,3960,3167,1748698371991
-165,-687,4037,3168,1748698372031
-205,-768,4015,3169,1748698372071
-228,-839,4147,3170,1748698372113
-186,-960,4349,3171,1748698372151
-21,-990,4163,3172,1748698372191
-152,-852,3934,3173,1748698372231
-250,-581,3998,3174,1748698372274
-206,-692,3976,3175,1748698372311
-173,-802,4028,3176,1748698372351
-225,-841,3910,3177,1748698372392
-189,-893,3966,3178,1748698372433
-316,-925,3828,3179,1748698372472
-420,-604,3872,3180,1748698372512
-144,-418,3917,3181,1748698372552
-279,-594,4042,3182,1748698372595
-216,-599,4069,3183,1748698372632
-210,-789,3954,3184,1748698372673
-204,-694,4066,3185,1748698372712
-272,-547,4002,3186,1748698372754
-236,-574,4016,3187,1748698372793
-192,-521,4060,3188,1748698372833
-222,-611,4026,3189,1748698372873
-254,-709,4022,3190,1748698372915
-265,-537,3989,3191,1748698372953
-327,-412,4067,3192,1748698372993
-265,-391,4041,3193,1748698373033
-143,-320,4091,3194,1748698373075
-292,-646,3961,3195,1748698373114
-294,-697,3979,3196,1748698373153
-250,-732,4008,3197,1748698373194
-216,-693,3998,3198,1748698373236
-253,-680,4025,3199,1748698373274
-220,-976,3930,3200,1748698373314
-150,-1194,3892,3201,1748698373354
-148,-1110,3867,3202,1748698373396
-168,-777,4008,3203,1748698373434
-29,-830,3998,3204,1748698373475
-44,-917,3967,3205,1748698373514
-128,-889,3923,3206,1748698373557
-127,-759,3984,3207,1748698373595
-153,-729,3989,3208,1748698373635
-213,-474,4017,3209,1748698373675
-250,-478,3981,3210,1748698373717
-199,-445,4015,3211,1748698373755
-211,-298,4018,3212,1748698373795
-241,-162,4066,3213,1748698373835
-264,1,4054,3214,1748698373878
-237,164,4099,3215,1748698373916
-159,76,4070,3216,1748698373956
-182,658,4157,3217,1748698373996
-282,229,4181,3218,1748698374038
-413,-19,4502,3219,1748698374076
-1315,-1211,5429,3220,1748698374116
-495,-785,4007,3221,1748698374156
-253,-742,3752,3222,1748698374199
1679,368,2238,3223,1748698374237
124,-1887,2796,3224,1748698374277
874,-1365,3246,3225,1748698374317
1237,-2047,3439,3226,1748698374359
1288,-2857,2713,3227,1748698374397
1081,-2468,3407,3228,1748698374437
1001,-1570,3751,3229,1748698374478
436,-2991,4769,3230,1748698374520
340,-3124,4547,3231,1748698374558
1162,-2603,3914,3232,1748698374598
1652,-3181,4805,3233,1748698374638
1579,-1918,4395,3234,1748698374680
1666,-1562,3332,3235,1748698374718
1745,-405,3173,3236,1748698374758
1275,-605,2467,3237,1748698374798
1506,-61,1813,3238,1748698374841
1709,360,1808,3239,1748698374879
2513,-81,1506,3240,1748698374918
2578,544,2067,3241,1748698374958
2697,686,1952,3242,1748698375000
2922,501,1605,3243,1748698375039
2825,829,2011,3244,1748698375079
8480,492,1217,3245,1748698375119
594,1297,2443,3246,1748698375161
4454,1376,2189,3247,1748698375199
3903,25,1440,3248,1748698375239
3489,888,1783,3249,1748698375280
3873,443,1580,3250,1748698375321
3576,837,1620,3251,1748698375359
3688,522,1815,3252,1748698375400
3612,672,1868,3253,1748698375440
3672,696,1636,3254,1748698375483
3683,681,1837,3255,1748698375520
3721,592,1607,3256,1748698375560
3674,922,1569,3257,1748698375600
3707,938,1609,3258,1748698375642
3664,852,1620,3259,1748698375681
3733,905,1557,3260,1748698375720
3693,852,1613,3261,1748698375761
3740,473,1699,3262,1748698375803
3656,1072,1632,3263,1748698375841
3655,898,1605,3264,1748698375881
3674,826,1599,3265,1748698375921
3649,1290,1720,3266,1748698375963
3675,755,1615,3267,1748698376001
3653,819,1708,3268,1748698376041
3605,1326,1715,3269,1748698376082
3668,942,1639,3270,1748698376124
3662,910,1622,3271,1748698376162
3632,987,1636,3272,1748698376202
3635,972,1690,3273,1748698376242
3639,773,1726,3274,1748698376284
3631,958,1739,3275,1748698376322
3626,900,1732,3276,1748698376362
3628,913,1689,3277,1748698376402
3658,814,1746,3278,1748698376445
3648,932,1778,3279,1748698376483
3629,946,1710,3280,1748698376523
3641,804,1644,3281,1748698376563
3659,921,1734,3282,1748698376605
3649,853,1715,3283,1748698376643
3619,850,1750,3284,1748698376683
3626,909,1760,3285,1748698376723
3630,863,1761,3286,1748698376766
3604,989,1734,3287,1748698376803
3680,959,1724,3288,1748698376844
3647,914,1746,3289,1748698376884
3640,914,1687,3290,1748698376925
3668,903,1711,3291,1748698376964
3628,946,1709,3292,1748698377004
3628,883,1657,3293,1748698377044
3688,862,1517,3294,1748698377087
3651,873,1413,3295,1748698377124
3635,1139,1828,3296,1748698377164
3575,1026,1877,3297,1748698377205
3691,952,1697,3298,1748698377246
3623,925,1711,3299,1748698377285
3620,956,1702,3300,1748698377325
3608,1255,1730,3301,1748698377365
3605,934,1735,3302,1748698377408
3655,1081,1785,3303,1748698377445
3621,766,1629,3304,1748698377486
3637,1184,1753,3305,1748698377525
3612,988,1716,3306,1748698377567
3634,771,1281,3307,1748698377606
3580,1168,1804,3308,1748698377646
3490,444,2285,3309,1748698377686
3502,501,2076,3310,1748698377728
3526,451,2059,3311,1748698377766
3533,326,2263,3312,1748698377806
3521,600,2035,3313,1748698377846
3515,-3,1919,3314,1748698377888
3519,428,2186,3315,1748698377927
3509,457,2201,3316,1748698377966
3466,457,2193,3317,1748698378007
3500,616,2060,3318,1748698378050
3503,584,2160,3319,1748698378087
3501,586,2167,3320,1748698378127
3525,279,2138,3321,1748698378167
3522,322,2098,3322,1748698378209
3548,334,2105,3323,1748698378247
3585,348,1952,3324,1748698378288
3574,327,1989,3325,1748698378328
3588,341,1939,3326,1748698378371
3666,275,1908,3327,1748698378408
3580,214,1944,3328,1748698378448
3657,236,1891,3329,1748698378489
3603,179,1890,3330,1748698378530
3639,92,1887,3331,1748698378568
3684,278,1910,3332,1748698378608
3691,-20,1856,3333,1748698378648
3666,-33,1726,3334,1748698378691
3713,76,1692,3335,1748698378729
3741,48,1708,3336,1748698378769
3755,9,1641,3337,1748698378809
3765,51,1597,3338,1748698378850
3740,25,1672,3339,1748698378889
3759,147,1697,3340,1748698378929
3726,31,1654,3341,1748698378969
3707,116,1761,3342,1748698379012
3737,166,1750,3343,1748698379049
3684,48,1773,3344,1748698379090
3709,1,1796,3345,1748698379129
3696,126,1762,3346,1748698379171
3727,137,1712,3347,1748698379209
3697,232,1755,3348,1748698379250
3725,200,1714,3349,1748698379290
3770,174,1727,3350,1748698379332
3744,150,1692,3351,1748698379370
3731,158,1710,3352,1748698379410
3740,132,1711,3353,1748698379450
3727,141,1744,3354,1748698379492
3757,160,1677,3355,1748698379530
3709,143,1772,3356,1748698379570
3755,156,1716,3357,1748698379610
3760,147,1659,3358,1748698379653
3732,159,1716,3359,1748698379691
3733,192,1708,3360,1748698379731
3747,123,1718,3361,1748698379771
3726,121,1777,3362,1748698379812
3722,104,1755,3363,1748698379851
3719,164,1724,3364,1748698379891
3766,133,1722,3365,1748698379931
3758,166,1704,3366,1748698379974
3759,156,1679,3367,1748698380011
3752,198,1707,3368,1748698380052
3727,171,1702,3369,1748698380092
3731,149,1687,3370,1748698380133
3735,133,1709,3371,1748698380172
3730,154,1694,3372,1748698380212
3720,107,1710,3373,1748698380252
3728,213,1724,3374,1748698380295
3726,180,1724,3375,1748698380332
3740,166,1693,3376,1748698380372
3728,201,1737,3377,1748698380412
3714,145,1718,3378,1748698380454
3745,139,1739,3379,1748698380493
3746,129,1692,3380,1748698380533
3752,128,1707,3381,1748698380573
3770,143,1704,3382,1748698380615
3725,162,1680,3383,1748698380653
3712,169,1738,3384,1748698380693
3741,195,1682,3385,1748698380733
3723,133,1716,3386,1748698380775
3729,178,1741,3387,1748698380813
3750,196,1706,3388,1748698380853
3733,144,1703,3389,1748698380894
3728,161,1731,3390,1748698380936
3742,220,1695,3391,1748698380974
3745,219,1705,3392,1748698381014
3718,201,1707,3393,1748698381054
3734,194,1748,3394,1748698381096
3696,175,1756,3395,1748698381134
3723,203,1751,3396,1748698381174
3688,227,1767,3397,1748698381214
3720,183,1755,3398,1748698381257
3724,250,1751,3399,1748698381295
3707,176,1741,3400,1748698381335
3709,185,1766,3401,1748698381375
3707,174,1773,3402,1748698381417
3727,155,1743,3403,1748698381455
3694,188,1756,3404,1748698381496
3720,233,1760,3405,1748698381536
3723,281,1774,3406,1748698381578
3722,251,1764,3407,1748698381616
3695,226,1815,3408,1748698381656
3707,204,1796,3409,1748698381696
3730,191,1778,3410,1748698381738
3693,206,1763,3411,1748698381776
3716,179,1769,3412,1748698381816
3710,256,1788,3413,1748698381856
3734,241,1744,3414,1748698381899
3716,152,1761,3415,1748698381937
3724,161,1773,3416,1748698381977
3713,239,1782,3417,1748698382017
3714,184,1752,3418,1748698382059
3736,195,1774,3419,1748698382098
3725,259,1751,3420,1748698382138
3709,263,1742,3421,1748698382178
3706,209,1741,3422,1748698382220
3709,246,1796,3423,1748698382258
3698,200,1790,3424,1748698382298
3730,191,1787,3425,1748698382338
3708,228,1799,3426,1748698382380
3704,206,1778,3427,1748698382418
3738,266,1797,3428,1748698382458
3734,251,1757,3429,1748698382499
3698,210,1762,3430,1748698382541
3687,240,1795,3431,1748698382579
3697,199,1775,3432,1748698382619
3709,191,1770,3433,1748698382659
3731,219,1782,3434,1748698382701
3705,232,1809,3435,1748698382739
3714,222,1775,3436,1748698382779
3712,279,1794,3437,1748698382819
3687,208,1769,3438,1748698382862
3736,273,1775,3439,1748698382900
3679,265,1814,3440,1748698382940
3696,230,1785,3441,1748698382980
3698,237,1808,3442,1748698383021
3706,226,1782,3443,1748698383060
3716,256,1804,3444,1748698383100
3719,213,1798,3445,1748698383140
3694,211,1800,3446,1748698383183
3683,248,1807,3447,1748698383220
3687,228,1797,3448,1748698383260
3683,264,1772,3449,1748698383301
3705,232,1800,3450,1748698383342
3685,280,1760,3451,1748698383381
3655,246,1761,3452,1748698383421
3645,249,1502,3453,1748698383461
3519,354,1395,3454,1748698383504
2868,281,1509,3455,1748698383541
1649,-745,2613,3456,1748698383581
1705,-542,2719,3457,1748698383621
1359,-609,2806,3458,1748698383663
1781,-1615,2899,3459,1748698383702
1361,-1357,3112,3460,1748698383741
2491,-1384,2756,3461,1748698383782
1483,-2626,3747,3462,1748698383824
2190,-2501,4085,3463,1748698383862
1861,-3182,4039,3464,1748698383902
1544,-2850,3555,3465,1748698383942
1470,-2465,3362,3466,1748698383984
1138,-2273,3762,3467,1748698384022
936,-1878,4260,3468,1748698384062
1117,-2791,3424,3469,1748698384103
907,-2372,3474,3470,1748698384145
725,-1867,3505,3471,1748698384183
676,-1774,3698,3472,1748698384223
377,-1982,4367,3473,1748698384263
416,-1039,4308,3474,1748698384305
1635,-949,1582,3475,1748698384343
3363,-2558,2023,3476,1748698384383
2020,-4004,2151,3477,1748698384423
398,-2678,3068,3478,1748698384466
443,-1366,2522,3479,1748698384504
-540,-480,3368,3480,1748698384544
-961,-1764,3712,3481,1748698384584
-802,-92,4947,3482,1748698384625
-1061,-483,4242,3483,1748698384664
-671,-504,4909,3484,1748698384704
-296,36,4326,3485,1748698384744
52,361,4103,3486,1748698384787
-287,473,4304,3487,1748698384825
-353,100,4038,3488,1748698384865
-396,827,4104,3489,1748698384905
-250,321,4320,3490,1748698384947
-240,511,3976,3491,1748698384985
-288,705,4235,3492,1748698385025
-487,50,3917,3493,1748698385065
-531,323,4199,3494,1748698385108
-780,336,4297,3495,1748698385146
-390,96,4031,3496,1748698385186
-567,-41,4005,3497,1748698385226
196,-490,3705,3498,1748698385268
64,5,3664,3499,1748698385306
596,-979,3333,3500,1748698385346
774,-139,3325,3501,1748698385381
1236,-756,5211,3502,1748698385424
-485,145,5285,3503,1748698385461
-5,-16,4605,3504,1748698385502
1307,-1832,3989,3505,1748698385542
-168,-1430,3278,3506,1748698385584
575,-1177,4031,3507,1748698385622
97,-950,4048,3508,1748698385662
811,-934,3609,3509,1748698385702
883,-728,3604,3510,1748698385745
997,-1828,2952,3511,1748698385782
1158,-2842,3282,3512,1748698385823
856,-2015,3481,3513,1748698385863
768,-1304,3276,3514,1748698385905
560,-2024,3548,3515,1748698385943
413,-2681,3424,3516,1748698385983
119,-2112,4348,3517,1748698386023
820,-2279,4108,3518,1748698386066
929,-2581,4617,3519,1748698386104
1055,-3097,4558,3520,1748698386143
1346,-2536,4173,3521,1748698386184
1490,-2369,3724,3522,1748698386226
1732,-2032,3112,3523,1748698386264
2100,-1627,2703,3524,1748698386305
2006,-1537,2191,3525,1748698386345
1626,-1103,2144,3526,1748698386387
1841,-899,2024,3527,1748698386424
1893,-474,2080,3528,1748698386465
2186,-616,1980,3529,1748698386505
2561,-457,1997,3530,1748698386546
2686,-71,1975,3531,1748698386585
6994,-1534,2163,3532,1748698386625
1032,187,2630,3533,1748698386665
3658,-594,2590,3534,1748698386708
3526,-1011,2615,3535,1748698386745
3197,-619,2582,3536,1748698386785
3676,-550,2248,3537,1748698386825
3420,-211,2542,3538,1748698386867
3504,-199,2543,3539,1748698386906
3287,-309,2139,3540,1748698386946
3378,-612,1792,3541,1748698386985
3446,-63,2067,3542,1748698387028
3522,428,2348,3543,1748698387066
3454,408,2144,3544,1748698387106
3539,162,2125,3545,1748698387146
3511,461,2087,3546,1748698387188
3561,374,1983,3547,1748698387226
3537,305,1996,3548,1748698387266
3532,487,2035,3549,1748698387306
3537,380,2044,3550,1748698387349
3516,437,2152,3551,1748698387386
3513,448,2004,3552,1748698387426
3552,447,2021,3553,1748698387466
3542,476,2160,3554,1748698387508
3490,578,2080,3555,1748698387547
3540,445,2019,3556,1748698387587
3559,254,1904,3557,1748698387627
3539,720,2072,3558,1748698387669
3552,394,2012,3559,1748698387707
3545,434,1984,3560,1748698387747
3562,591,1990,3561,1748698387787
3560,383,2012,3562,1748698387829
3586,526,2040,3563,1748698387867
3551,343,1981,3564,1748698387908
3518,547,2035,3565,1748698387947
3576,448,2023,3566,1748698387990
3533,408,2064,3567,1748698388028
3557,481,1988,3568,1748698388068
3584,480,1987,3569,1748698388108
3552,467,2010,3570,1748698388150
3534,496,2044,3571,1748698388188
3571,451,2018,3572,1748698388228
3547,506,2028,3573,1748698388268
3545,477,1993,3574,1748698388311
3578,444,2008,3575,1748698388348
3537,476,2011,3576,1748698388389
3560,493,2012,3577,1748698388429
3570,433,2018,3578,1748698388471
3561,468,2022,3579,1748698388509
3511,458,2011,3580,1748698388549
3583,492,1994,3581,1748698388589
3521,464,2016,3582,1748698388632
3549,509,2010,3583,1748698388669
3558,503,2001,3584,1748698388710
3545,417,1984,3585,1748698388750
3558,502,2017,3586,1748698388791
3529,423,2047,3587,1748698388830
3564,440,2069,3588,1748698388870
3580,479,2027,3589,1748698388910
3559,488,2005,3590,1748698388953
3564,456,2035,3591,1748698388991
3556,453,2030,3592,1748698389030
3560,446,2041,3593,1748698389071
